Continue.keys, Continue.rt, instructions_response.keys, instructions_response.rt, repeat_response.keys, repeat_response.rt, key_resp_5.keys, key_resp_5.rt, key_resp_2.keys, key_resp_2.rt, key_resp_4.keys, key_resp_4.rt, Trials_response.keys, Trials_response.corr, Trials_response.rt, Block_Continue.keys, Block_Continue.rt, Image, instructions_1_loop.thisRepN, instructions_1_loop.thisTrialN, instructions_1_loop.thisN, instructions_1_loop.thisIndex, instructions_2_repeat.thisRepN, instructions_2_repeat.thisTrialN, instructions_2_repeat.thisN, instructions_2_repeat.thisIndex, stim, prompt, answer, trials_2.thisRepN, trials_2.thisTrialN, trials_2.thisN, trials_2.thisIndex, stim, prompt, answer, trials.thisRepN, trials.thisTrialN, trials.thisN, trials.thisIndex, participant, date, expName, frameRate
space, 2.051000000000002, space, 4.7860000000000085, , , , , , , , , , , , , , Slide1.JPG, 0, 0, 0, 0, , , , , , , , , , , , , , , , , , , 26044874, Wed Nov 15 2017 14:04:50 GMT-0500 (EST), Ultimate_Frisbee, 60
, , space, 14.040000000000006, , , , , , , , , , , , , , Slide2.JPG, 0, 1, 1, 1, , , , , , , , , , , , , , , , , , , 26044874, Wed Nov 15 2017 14:04:50 GMT-0500 (EST), Ultimate_Frisbee, 60
, , space, 20.560999999999993, , , , , , , , , , , , , , Slide3.JPG, 0, 2, 2, 2, , , , , , , , , , , , , , , , , , , 26044874, Wed Nov 15 2017 14:04:50 GMT-0500 (EST), Ultimate_Frisbee, 60
, , space, 3.6019999999999897, , , , , , , , , , , , , , Slide4.JPG, 0, 3, 3, 3, , , , , , , , , , , , , , , , , , , 26044874, Wed Nov 15 2017 14:04:50 GMT-0500 (EST), Ultimate_Frisbee, 60
, , space, 10.222000000000008, , , , , , , , , , , , , , Slide5.JPG, 0, 4, 4, 4, , , , , , , , , , , , , , , , , , , 26044874, Wed Nov 15 2017 14:04:50 GMT-0500 (EST), Ultimate_Frisbee, 60
, , space, 10.022000000000006, , , , , , , , , , , , , , Slide6.JPG, 0, 5, 5, 5, , , , , , , , , , , , , , , , , , , 26044874, Wed Nov 15 2017 14:04:50 GMT-0500 (EST), Ultimate_Frisbee, 60
, , space, 7.620999999999981, , , , , , , , , , , , , , Slide7.JPG, 0, 6, 6, 6, , , , , , , , , , , , , , , , , , , 26044874, Wed Nov 15 2017 14:04:50 GMT-0500 (EST), Ultimate_Frisbee, 60
, , space, 4.652000000000015, , , , , , , , , , , , , , Slide8.JPG, 0, 7, 7, 7, , , , , , , , , , , , , , , , , , , 26044874, Wed Nov 15 2017 14:04:50 GMT-0500 (EST), Ultimate_Frisbee, 60
, , space, 4.7190000000000225, , , , , , , , , , , , , , Slide9.JPG, 0, 8, 8, 8, , , , , , , , , , , , , , , , , , , 26044874, Wed Nov 15 2017 14:04:50 GMT-0500 (EST), Ultimate_Frisbee, 60
, , space, 3.850999999999999, , , , , , , , , , , , , , Slide10.JPG, 0, 9, 9, 9, , , , , , , , , , , , , , , , , , , 26044874, Wed Nov 15 2017 14:04:50 GMT-0500 (EST), Ultimate_Frisbee, 60
, , space, 4.585000000000008, , , , , , , , , , , , , , Slide11.JPG, 0, 10, 10, 10, , , , , , , , , , , , , , , , , , , 26044874, Wed Nov 15 2017 14:04:50 GMT-0500 (EST), Ultimate_Frisbee, 60
, , space, 2.5349999999999966, , , , , , , , , , , , , , Slide12.JPG, 0, 11, 11, 11, , , , , , , , , , , , , , , , , , , 26044874, Wed Nov 15 2017 14:04:50 GMT-0500 (EST), Ultimate_Frisbee, 60
, , space, 1.6839999999999975, , , , , , , , , , , , , , Slide13.JPG, 0, 12, 12, 12, , , , , , , , , , , , , , , , , , , 26044874, Wed Nov 15 2017 14:04:50 GMT-0500 (EST), Ultimate_Frisbee, 60
, , space, 3.651999999999987, , , , , , , , , , , , , , Slide14.JPG, 0, 13, 13, 13, , , , , , , , , , , , , , , , , , , 26044874, Wed Nov 15 2017 14:04:50 GMT-0500 (EST), Ultimate_Frisbee, 60
, , , , 0, 3.169000000000011, space, 3.100999999999999, left, 1.9499999999999886, , , , , , , , , , , , , , , , , frizFarLeft.jpg, The force is forehand., left, 0, 0, 0, 0, frizFarLeft.jpg, The force is forehand., left, , , , , 26044874, Wed Nov 15 2017 14:04:50 GMT-0500 (EST), Ultimate_Frisbee, 60
, , , , , , , , right, 1.5829999999999984, , , , , , , , , , , , , , , , , frizNearLeft.jpg, The force is away., right, 0, 1, 1, 1, frizNearLeft.jpg, The force is away., right, , , , , 26044874, Wed Nov 15 2017 14:04:50 GMT-0500 (EST), Ultimate_Frisbee, 60
, , , , , , , , right, 2.8669999999999902, , , , , , , , , , , , , , , , , frizFarRight.jpg, The force is backhand., right, 0, 2, 2, 2, frizFarRight.jpg, The force is backhand., right, , , , , 26044874, Wed Nov 15 2017 14:04:50 GMT-0500 (EST), Ultimate_Frisbee, 60
, , , , , , , , right, 1.6829999999999927, , , , , , , , , , , , , , , , , frizNearRight.jpg, The force is home., right, 0, 3, 3, 3, frizNearRight.jpg, The force is home., right, , , , , 26044874, Wed Nov 15 2017 14:04:50 GMT-0500 (EST), Ultimate_Frisbee, 60
, , , , , , , , left, 1.4330000000000211, , , , , , , , , , , , , , , , , frizNearLeft.jpg, The force is backhand., left, 0, 4, 4, 4, frizNearLeft.jpg, The force is backhand., left, , , , , 26044874, Wed Nov 15 2017 14:04:50 GMT-0500 (EST), Ultimate_Frisbee, 60
, , , , , , , , right, 1.0670000000000073, , , , , , , , , , , , , , , , , frizNearRight.jpg, The force is home., right, 0, 5, 5, 5, frizNearRight.jpg, The force is home., right, , , , , 26044874, Wed Nov 15 2017 14:04:50 GMT-0500 (EST), Ultimate_Frisbee, 60
, , , , , , , , right, 1.8319999999999936, , , , , , , , , , , , , , , , , frizNearLeft.jpg, The force is away., right, 0, 6, 6, 6, frizNearLeft.jpg, The force is away., right, , , , , 26044874, Wed Nov 15 2017 14:04:50 GMT-0500 (EST), Ultimate_Frisbee, 60
, , , , , , , , left, 4.786000000000001, , , , , , , , , , , , , , , , , frizFarLeft.jpg, The force is forehand., left, 0, 7, 7, 7, frizFarLeft.jpg, The force is forehand., left, , , , , 26044874, Wed Nov 15 2017 14:04:50 GMT-0500 (EST), Ultimate_Frisbee, 60
, , , , , , , , , , space, 2.6850000000000023, right, 1, 1.266999999999996, , , , , , , , , , , , frizNearLeft.jpg, The force is forehand., right, , , , , frizNearLeft.jpg, The force is forehand., right, 0, 0, 0, 2, 26044874, Wed Nov 15 2017 14:04:50 GMT-0500 (EST), Ultimate_Frisbee, 60
, , , , , , , , , , , , left, 1, 1.1180000000000234, , , , , , , , , , , , frizNearLeft.jpg, The force is backhand., left, , , , , frizNearLeft.jpg, The force is backhand., left, 0, 1, 1, 6, 26044874, Wed Nov 15 2017 14:04:50 GMT-0500 (EST), Ultimate_Frisbee, 60
, , , , , , , , , , , , right, 1, 0.8830000000000098, , , , , , , , , , , , frizNearRight.jpg, The force is forehand., right, , , , , frizNearRight.jpg, The force is forehand., right, 0, 2, 2, 3, 26044874, Wed Nov 15 2017 14:04:50 GMT-0500 (EST), Ultimate_Frisbee, 60
, , , , , , , , , , , , left, 1, 0.9509999999999934, , , , , , , , , , , , frizNearRight.jpg, The force is backhand., left, , , , , frizNearRight.jpg, The force is backhand., left, 0, 3, 3, 7, 26044874, Wed Nov 15 2017 14:04:50 GMT-0500 (EST), Ultimate_Frisbee, 60
, , , , , , , , , , , , right, 1, 1.5010000000000048, , , , , , , , , , , , frizNearLeft.jpg, The force is away., right, , , , , frizNearLeft.jpg, The force is away., right, 0, 4, 4, 14, 26044874, Wed Nov 15 2017 14:04:50 GMT-0500 (EST), Ultimate_Frisbee, 60
, , , , , , , , , , , , left, 1, 0.8840000000000146, , , , , , , , , , , , frizNearRight.jpg, The force is away., left, , , , , frizNearRight.jpg, The force is away., left, 0, 5, 5, 15, 26044874, Wed Nov 15 2017 14:04:50 GMT-0500 (EST), Ultimate_Frisbee, 60
, , , , , , , , , , , , right, 1, 1.2839999999999918, , , , , , , , , , , , frizNearRight.jpg, The force is home., right, , , , , frizNearRight.jpg, The force is home., right, 0, 6, 6, 11, 26044874, Wed Nov 15 2017 14:04:50 GMT-0500 (EST), Ultimate_Frisbee, 60
, , , , , , , , , , , , right, 1, 2.65300000000002, , , , , , , , , , , , frizFarLeft.jpg, The force is backhand., right, , , , , frizFarLeft.jpg, The force is backhand., right, 0, 7, 7, 4, 26044874, Wed Nov 15 2017 14:04:50 GMT-0500 (EST), Ultimate_Frisbee, 60
, , , , , , , , , , , , right, 1, 1.3670000000000186, , , , , , , , , , , , frizFarRight.jpg, The force is home., right, , , , , frizFarRight.jpg, The force is home., right, 0, 8, 8, 9, 26044874, Wed Nov 15 2017 14:04:50 GMT-0500 (EST), Ultimate_Frisbee, 60
, , , , , , , , , , , , left, 1, 1.1000000000000227, , , , , , , , , , , , frizNearLeft.jpg, The force is home., left, , , , , frizNearLeft.jpg, The force is home., left, 0, 9, 9, 10, 26044874, Wed Nov 15 2017 14:04:50 GMT-0500 (EST), Ultimate_Frisbee, 60
, , , , , , , , , , , , right, 1, 1.4169999999999732, , , , , , , , , , , , frizFarRight.jpg, The force is backhand., right, , , , , frizFarRight.jpg, The force is backhand., right, 0, 10, 10, 5, 26044874, Wed Nov 15 2017 14:04:50 GMT-0500 (EST), Ultimate_Frisbee, 60
, , , , , , , , , , , , left, 1, 1.1510000000000105, , , , , , , , , , , , frizFarLeft.jpg, The force is forehand., left, , , , , frizFarLeft.jpg, The force is forehand., left, 0, 11, 11, 0, 26044874, Wed Nov 15 2017 14:04:50 GMT-0500 (EST), Ultimate_Frisbee, 60
, , , , , , , , , , , , left, 1, 1.0670000000000073, , , , , , , , , , , , frizFarLeft.jpg, The force is home., left, , , , , frizFarLeft.jpg, The force is home., left, 0, 12, 12, 8, 26044874, Wed Nov 15 2017 14:04:50 GMT-0500 (EST), Ultimate_Frisbee, 60
, , , , , , , , , , , , right, 1, 2.1680000000000064, , , , , , , , , , , , frizFarLeft.jpg, The force is away., right, , , , , frizFarLeft.jpg, The force is away., right, 0, 13, 13, 12, 26044874, Wed Nov 15 2017 14:04:50 GMT-0500 (EST), Ultimate_Frisbee, 60
, , , , , , , , , , , , left, 1, 1.8009999999999877, , , , , , , , , , , , frizFarRight.jpg, The force is away., left, , , , , frizFarRight.jpg, The force is away., left, 0, 14, 14, 13, 26044874, Wed Nov 15 2017 14:04:50 GMT-0500 (EST), Ultimate_Frisbee, 60
, , , , , , , , , , , , left, 1, 1.2340000000000373, , , , , , , , , , , , frizFarRight.jpg, The force is forehand., left, , , , , frizFarRight.jpg, The force is forehand., left, 0, 15, 15, 1, 26044874, Wed Nov 15 2017 14:04:50 GMT-0500 (EST), Ultimate_Frisbee, 60
, , , , , , , , , , , , right, 1, 1.6000000000000227, , , , , , , , , , , , frizFarRight.jpg, The force is backhand., right, , , , , frizFarRight.jpg, The force is backhand., right, 1, 0, 16, 5, 26044874, Wed Nov 15 2017 14:04:50 GMT-0500 (EST), Ultimate_Frisbee, 60
, , , , , , , , , , , , right, 1, 0.9830000000000041, , , , , , , , , , , , frizFarLeft.jpg, The force is backhand., right, , , , , frizFarLeft.jpg, The force is backhand., right, 1, 1, 17, 4, 26044874, Wed Nov 15 2017 14:04:50 GMT-0500 (EST), Ultimate_Frisbee, 60
, , , , , , , , , , , , left, 1, 1.433999999999969, , , , , , , , , , , , frizNearLeft.jpg, The force is home., left, , , , , frizNearLeft.jpg, The force is home., left, 1, 2, 18, 10, 26044874, Wed Nov 15 2017 14:04:50 GMT-0500 (EST), Ultimate_Frisbee, 60
, , , , , , , , , , , , left, 1, 0.7169999999999845, , , , , , , , , , , , frizFarLeft.jpg, The force is home., left, , , , , frizFarLeft.jpg, The force is home., left, 1, 3, 19, 8, 26044874, Wed Nov 15 2017 14:04:50 GMT-0500 (EST), Ultimate_Frisbee, 60
, , , , , , , , , , , , right, 1, 0.7509999999999764, , , , , , , , , , , , frizNearLeft.jpg, The force is away., right, , , , , frizNearLeft.jpg, The force is away., right, 1, 4, 20, 14, 26044874, Wed Nov 15 2017 14:04:50 GMT-0500 (EST), Ultimate_Frisbee, 60
, , , , , , , , , , , , left, 1, 0.8840000000000146, , , , , , , , , , , , frizFarLeft.jpg, The force is forehand., left, , , , , frizFarLeft.jpg, The force is forehand., left, 1, 5, 21, 0, 26044874, Wed Nov 15 2017 14:04:50 GMT-0500 (EST), Ultimate_Frisbee, 60
, , , , , , , , , , , , left, 1, 1.1329999999999814, , , , , , , , , , , , frizFarRight.jpg, The force is forehand., left, , , , , frizFarRight.jpg, The force is forehand., left, 1, 6, 22, 1, 26044874, Wed Nov 15 2017 14:04:50 GMT-0500 (EST), Ultimate_Frisbee, 60
, , , , , , , , , , , , left, 1, 1.1669999999999732, , , , , , , , , , , , frizNearRight.jpg, The force is backhand., left, , , , , frizNearRight.jpg, The force is backhand., left, 1, 7, 23, 7, 26044874, Wed Nov 15 2017 14:04:50 GMT-0500 (EST), Ultimate_Frisbee, 60
, , , , , , , , , , , , right, 1, 1.450999999999965, , , , , , , , , , , , frizFarRight.jpg, The force is home., right, , , , , frizFarRight.jpg, The force is home., right, 1, 8, 24, 9, 26044874, Wed Nov 15 2017 14:04:50 GMT-0500 (EST), Ultimate_Frisbee, 60
, , , , , , , , , , , , right, 1, 1.0020000000000095, , , , , , , , , , , , frizNearRight.jpg, The force is home., right, , , , , frizNearRight.jpg, The force is home., right, 1, 9, 25, 11, 26044874, Wed Nov 15 2017 14:04:50 GMT-0500 (EST), Ultimate_Frisbee, 60
, , , , , , , , , , , , left, 1, 1.617999999999995, , , , , , , , , , , , frizNearLeft.jpg, The force is backhand., left, , , , , frizNearLeft.jpg, The force is backhand., left, 1, 10, 26, 6, 26044874, Wed Nov 15 2017 14:04:50 GMT-0500 (EST), Ultimate_Frisbee, 60
, , , , , , , , , , , , right, 1, 1.3839999999999577, , , , , , , , , , , , frizFarLeft.jpg, The force is away., right, , , , , frizFarLeft.jpg, The force is away., right, 1, 11, 27, 12, 26044874, Wed Nov 15 2017 14:04:50 GMT-0500 (EST), Ultimate_Frisbee, 60
, , , , , , , , , , , , right, 1, 1, , , , , , , , , , , , frizNearRight.jpg, The force is forehand., right, , , , , frizNearRight.jpg, The force is forehand., right, 1, 12, 28, 3, 26044874, Wed Nov 15 2017 14:04:50 GMT-0500 (EST), Ultimate_Frisbee, 60
, , , , , , , , , , , , right, 1, 1.0679999999999836, , , , , , , , , , , , frizNearLeft.jpg, The force is forehand., right, , , , , frizNearLeft.jpg, The force is forehand., right, 1, 13, 29, 2, 26044874, Wed Nov 15 2017 14:04:50 GMT-0500 (EST), Ultimate_Frisbee, 60
, , , , , , , , , , , , left, 1, 1.518000000000029, , , , , , , , , , , , frizFarRight.jpg, The force is away., left, , , , , frizFarRight.jpg, The force is away., left, 1, 14, 30, 13, 26044874, Wed Nov 15 2017 14:04:50 GMT-0500 (EST), Ultimate_Frisbee, 60
, , , , , , , , , , , , left, 1, 1.634999999999991, , , , , , , , , , , , frizNearRight.jpg, The force is away., left, , , , , frizNearRight.jpg, The force is away., left, 1, 15, 31, 15, 26044874, Wed Nov 15 2017 14:04:50 GMT-0500 (EST), Ultimate_Frisbee, 60
, , , , , , , , , , , , right, 1, 1.7010000000000218, , , , , , , , , , , , frizNearLeft.jpg, The force is forehand., right, , , , , frizNearLeft.jpg, The force is forehand., right, 2, 0, 32, 2, 26044874, Wed Nov 15 2017 14:04:50 GMT-0500 (EST), Ultimate_Frisbee, 60
, , , , , , , , , , , , left, 1, 0.9830000000000041, , , , , , , , , , , , frizNearLeft.jpg, The force is home., left, , , , , frizNearLeft.jpg, The force is home., left, 2, 1, 33, 10, 26044874, Wed Nov 15 2017 14:04:50 GMT-0500 (EST), Ultimate_Frisbee, 60
, , , , , , , , , , , , right, 1, 1.0500000000000114, , , , , , , , , , , , frizFarLeft.jpg, The force is away., right, , , , , frizFarLeft.jpg, The force is away., right, 2, 2, 34, 12, 26044874, Wed Nov 15 2017 14:04:50 GMT-0500 (EST), Ultimate_Frisbee, 60
, , , , , , , , , , , , right, 1, 1.7679999999999723, , , , , , , , , , , , frizNearRight.jpg, The force is home., right, , , , , frizNearRight.jpg, The force is home., right, 2, 3, 35, 11, 26044874, Wed Nov 15 2017 14:04:50 GMT-0500 (EST), Ultimate_Frisbee, 60
, , , , , , , , , , , , left, 1, 2.1340000000000146, , , , , , , , , , , , frizFarLeft.jpg, The force is home., left, , , , , frizFarLeft.jpg, The force is home., left, 2, 4, 36, 8, 26044874, Wed Nov 15 2017 14:04:50 GMT-0500 (EST), Ultimate_Frisbee, 60
, , , , , , , , , , , , left, 1, 1.0670000000000073, , , , , , , , , , , , frizNearRight.jpg, The force is backhand., left, , , , , frizNearRight.jpg, The force is backhand., left, 2, 5, 37, 7, 26044874, Wed Nov 15 2017 14:04:50 GMT-0500 (EST), Ultimate_Frisbee, 60
, , , , , , , , , , , , left, 1, 2.100999999999999, , , , , , , , , , , , frizNearRight.jpg, The force is away., left, , , , , frizNearRight.jpg, The force is away., left, 2, 6, 38, 15, 26044874, Wed Nov 15 2017 14:04:50 GMT-0500 (EST), Ultimate_Frisbee, 60
, , , , , , , , , , , , right, 1, 2.100999999999999, , , , , , , , , , , , frizFarRight.jpg, The force is backhand., right, , , , , frizFarRight.jpg, The force is backhand., right, 2, 7, 39, 5, 26044874, Wed Nov 15 2017 14:04:50 GMT-0500 (EST), Ultimate_Frisbee, 60
, , , , , , , , , , , , left, 1, 1.1340000000000146, , , , , , , , , , , , frizNearLeft.jpg, The force is backhand., left, , , , , frizNearLeft.jpg, The force is backhand., left, 2, 8, 40, 6, 26044874, Wed Nov 15 2017 14:04:50 GMT-0500 (EST), Ultimate_Frisbee, 60
, , , , , , , , , , , , right, 1, 3.319000000000017, , , , , , , , , , , , frizNearLeft.jpg, The force is away., right, , , , , frizNearLeft.jpg, The force is away., right, 2, 9, 41, 14, 26044874, Wed Nov 15 2017 14:04:50 GMT-0500 (EST), Ultimate_Frisbee, 60
, , , , , , , , , , , , right, 1, 3.1689999999999827, , , , , , , , , , , , frizFarLeft.jpg, The force is backhand., right, , , , , frizFarLeft.jpg, The force is backhand., right, 2, 10, 42, 4, 26044874, Wed Nov 15 2017 14:04:50 GMT-0500 (EST), Ultimate_Frisbee, 60
, , , , , , , , , , , , right, 1, 1.0330000000000155, , , , , , , , , , , , frizNearRight.jpg, The force is forehand., right, , , , , frizNearRight.jpg, The force is forehand., right, 2, 11, 43, 3, 26044874, Wed Nov 15 2017 14:04:50 GMT-0500 (EST), Ultimate_Frisbee, 60
, , , , , , , , , , , , left, 1, 1.2839999999999918, , , , , , , , , , , , frizFarRight.jpg, The force is away., left, , , , , frizFarRight.jpg, The force is away., left, 2, 12, 44, 13, 26044874, Wed Nov 15 2017 14:04:50 GMT-0500 (EST), Ultimate_Frisbee, 60
, , , , , , , , , , , , right, 1, 1.0339999999999918, , , , , , , , , , , , frizFarRight.jpg, The force is home., right, , , , , frizFarRight.jpg, The force is home., right, 2, 13, 45, 9, 26044874, Wed Nov 15 2017 14:04:50 GMT-0500 (EST), Ultimate_Frisbee, 60
, , , , , , , , , , , , right, 0, 1.450999999999965, , , , , , , , , , , , frizFarRight.jpg, The force is forehand., left, , , , , frizFarRight.jpg, The force is forehand., left, 2, 14, 46, 1, 26044874, Wed Nov 15 2017 14:04:50 GMT-0500 (EST), Ultimate_Frisbee, 60
, , , , , , , , , , , , left, 1, 0.5840000000000032, , , , , , , , , , , , frizFarLeft.jpg, The force is forehand., left, , , , , frizFarLeft.jpg, The force is forehand., left, 2, 15, 47, 0, 26044874, Wed Nov 15 2017 14:04:50 GMT-0500 (EST), Ultimate_Frisbee, 60
, , , , , , , , , , , , left, 1, 1.9180000000000064, , , , , , , , , , , , frizFarRight.jpg, The force is away., left, , , , , frizFarRight.jpg, The force is away., left, 3, 0, 48, 13, 26044874, Wed Nov 15 2017 14:04:50 GMT-0500 (EST), Ultimate_Frisbee, 60
, , , , , , , , , , , , right, 1, 1.434000000000026, , , , , , , , , , , , frizNearLeft.jpg, The force is away., right, , , , , frizNearLeft.jpg, The force is away., right, 3, 1, 49, 14, 26044874, Wed Nov 15 2017 14:04:50 GMT-0500 (EST), Ultimate_Frisbee, 60
, , , , , , , , , , , , right, 1, 1.0670000000000073, , , , , , , , , , , , frizFarRight.jpg, The force is home., right, , , , , frizFarRight.jpg, The force is home., right, 3, 2, 50, 9, 26044874, Wed Nov 15 2017 14:04:50 GMT-0500 (EST), Ultimate_Frisbee, 60
, , , , , , , , , , , , right, 1, 1.483000000000004, , , , , , , , , , , , frizNearLeft.jpg, The force is forehand., right, , , , , frizNearLeft.jpg, The force is forehand., right, 3, 3, 51, 2, 26044874, Wed Nov 15 2017 14:04:50 GMT-0500 (EST), Ultimate_Frisbee, 60
, , , , , , , , , , , , left, 1, 0.66700000000003, , , , , , , , , , , , frizFarRight.jpg, The force is forehand., left, , , , , frizFarRight.jpg, The force is forehand., left, 3, 4, 52, 1, 26044874, Wed Nov 15 2017 14:04:50 GMT-0500 (EST), Ultimate_Frisbee, 60
, , , , , , , , , , , , right, 1, 4.351999999999975, , , , , , , , , , , , frizFarLeft.jpg, The force is backhand., right, , , , , frizFarLeft.jpg, The force is backhand., right, 3, 5, 53, 4, 26044874, Wed Nov 15 2017 14:04:50 GMT-0500 (EST), Ultimate_Frisbee, 60
, , , , , , , , , , , , left, 1, 0.91700000000003, , , , , , , , , , , , frizNearRight.jpg, The force is away., left, , , , , frizNearRight.jpg, The force is away., left, 3, 6, 54, 15, 26044874, Wed Nov 15 2017 14:04:50 GMT-0500 (EST), Ultimate_Frisbee, 60
, , , , , , , , , , , , left, 1, 0.7839999999999918, , , , , , , , , , , , frizFarLeft.jpg, The force is home., left, , , , , frizFarLeft.jpg, The force is home., left, 3, 7, 55, 8, 26044874, Wed Nov 15 2017 14:04:50 GMT-0500 (EST), Ultimate_Frisbee, 60
, , , , , , , , , , , , left, 1, 2.1030000000000086, , , , , , , , , , , , frizNearLeft.jpg, The force is backhand., left, , , , , frizNearLeft.jpg, The force is backhand., left, 3, 8, 56, 6, 26044874, Wed Nov 15 2017 14:04:50 GMT-0500 (EST), Ultimate_Frisbee, 60
, , , , , , , , , , , , right, 1, 1.6000000000000227, , , , , , , , , , , , frizNearRight.jpg, The force is home., right, , , , , frizNearRight.jpg, The force is home., right, 3, 9, 57, 11, 26044874, Wed Nov 15 2017 14:04:50 GMT-0500 (EST), Ultimate_Frisbee, 60
, , , , , , , , , , , , left, 1, 1.7340000000000373, , , , , , , , , , , , frizNearLeft.jpg, The force is home., left, , , , , frizNearLeft.jpg, The force is home., left, 3, 10, 58, 10, 26044874, Wed Nov 15 2017 14:04:50 GMT-0500 (EST), Ultimate_Frisbee, 60
, , , , , , , , , , , , right, 1, 1.0339999999999918, , , , , , , , , , , , frizFarLeft.jpg, The force is away., right, , , , , frizFarLeft.jpg, The force is away., right, 3, 11, 59, 12, 26044874, Wed Nov 15 2017 14:04:50 GMT-0500 (EST), Ultimate_Frisbee, 60
, , , , , , , , , , , , right, 1, 2.1689999999999827, , , , , , , , , , , , frizFarRight.jpg, The force is backhand., right, , , , , frizFarRight.jpg, The force is backhand., right, 3, 12, 60, 5, 26044874, Wed Nov 15 2017 14:04:50 GMT-0500 (EST), Ultimate_Frisbee, 60
, , , , , , , , , , , , right, 1, 1.450999999999965, , , , , , , , , , , , frizNearRight.jpg, The force is forehand., right, , , , , frizNearRight.jpg, The force is forehand., right, 3, 13, 61, 3, 26044874, Wed Nov 15 2017 14:04:50 GMT-0500 (EST), Ultimate_Frisbee, 60
, , , , , , , , , , , , left, 1, 1.0499999999999545, , , , , , , , , , , , frizNearRight.jpg, The force is backhand., left, , , , , frizNearRight.jpg, The force is backhand., left, 3, 14, 62, 7, 26044874, Wed Nov 15 2017 14:04:50 GMT-0500 (EST), Ultimate_Frisbee, 60
, , , , , , , , , , , , left, 1, 0.9680000000000177, , , , , , , , , , , , frizFarLeft.jpg, The force is forehand., left, , , , , frizFarLeft.jpg, The force is forehand., left, 3, 15, 63, 0, 26044874, Wed Nov 15 2017 14:04:50 GMT-0500 (EST), Ultimate_Frisbee, 60
