Continue.keys, Continue.rt, instructions_response.keys, instructions_response.rt, repeat_response.keys, repeat_response.rt, key_resp_5.keys, key_resp_5.rt, key_resp_2.keys, key_resp_2.rt, key_resp_4.keys, key_resp_4.rt, Trials_response.keys, Trials_response.corr, Trials_response.rt, Block_Continue.keys, Block_Continue.rt, Image, instructions_1_loop.thisRepN, instructions_1_loop.thisTrialN, instructions_1_loop.thisN, instructions_1_loop.thisIndex, instructions_2_repeat.thisRepN, instructions_2_repeat.thisTrialN, instructions_2_repeat.thisN, instructions_2_repeat.thisIndex, stim, prompt, answer, trials_2.thisRepN, trials_2.thisTrialN, trials_2.thisN, trials_2.thisIndex, stim, prompt, answer, trials.thisRepN, trials.thisTrialN, trials.thisN, trials.thisIndex, participant, date, expName, frameRate
space, 0.6799999999999997, space, 1.8239999999999998, , , , , , , , , , , , , , Slide1.JPG, 0, 0, 0, 0, , , , , , , , , , , , , , , , , , , 56499208, Wed Nov 15 2017 16:33:54 GMT-0500 (Eastern Standard Time), Ultimate_Frisbee, 60
, , space, 10.414, , , , , , , , , , , , , , Slide2.JPG, 0, 1, 1, 1, , , , , , , , , , , , , , , , , , , 56499208, Wed Nov 15 2017 16:33:54 GMT-0500 (Eastern Standard Time), Ultimate_Frisbee, 60
, , space, 2.6529999999999987, , , , , , , , , , , , , , Slide3.JPG, 0, 2, 2, 2, , , , , , , , , , , , , , , , , , , 56499208, Wed Nov 15 2017 16:33:54 GMT-0500 (Eastern Standard Time), Ultimate_Frisbee, 60
, , space, 0.5150000000000006, , , , , , , , , , , , , , Slide4.JPG, 0, 3, 3, 3, , , , , , , , , , , , , , , , , , , 56499208, Wed Nov 15 2017 16:33:54 GMT-0500 (Eastern Standard Time), Ultimate_Frisbee, 60
, , space, 3.0519999999999996, , , , , , , , , , , , , , Slide5.JPG, 0, 4, 4, 4, , , , , , , , , , , , , , , , , , , 56499208, Wed Nov 15 2017 16:33:54 GMT-0500 (Eastern Standard Time), Ultimate_Frisbee, 60
, , space, 4.277999999999999, , , , , , , , , , , , , , Slide6.JPG, 0, 5, 5, 5, , , , , , , , , , , , , , , , , , , 56499208, Wed Nov 15 2017 16:33:54 GMT-0500 (Eastern Standard Time), Ultimate_Frisbee, 60
, , space, 0.5479999999999947, , , , , , , , , , , , , , Slide7.JPG, 0, 6, 6, 6, , , , , , , , , , , , , , , , , , , 56499208, Wed Nov 15 2017 16:33:54 GMT-0500 (Eastern Standard Time), Ultimate_Frisbee, 60
, , space, 7.530000000000001, , , , , , , , , , , , , , Slide8.JPG, 0, 7, 7, 7, , , , , , , , , , , , , , , , , , , 56499208, Wed Nov 15 2017 16:33:54 GMT-0500 (Eastern Standard Time), Ultimate_Frisbee, 60
, , space, 14.558999999999997, , , , , , , , , , , , , , Slide9.JPG, 0, 8, 8, 8, , , , , , , , , , , , , , , , , , , 56499208, Wed Nov 15 2017 16:33:54 GMT-0500 (Eastern Standard Time), Ultimate_Frisbee, 60
, , space, 2.537000000000006, , , , , , , , , , , , , , Slide10.JPG, 0, 9, 9, 9, , , , , , , , , , , , , , , , , , , 56499208, Wed Nov 15 2017 16:33:54 GMT-0500 (Eastern Standard Time), Ultimate_Frisbee, 60
, , space, 2.353999999999999, , , , , , , , , , , , , , Slide11.JPG, 0, 10, 10, 10, , , , , , , , , , , , , , , , , , , 56499208, Wed Nov 15 2017 16:33:54 GMT-0500 (Eastern Standard Time), Ultimate_Frisbee, 60
, , space, 1.1440000000000055, , , , , , , , , , , , , , Slide12.JPG, 0, 11, 11, 11, , , , , , , , , , , , , , , , , , , 56499208, Wed Nov 15 2017 16:33:54 GMT-0500 (Eastern Standard Time), Ultimate_Frisbee, 60
, , space, 0.980000000000004, , , , , , , , , , , , , , Slide13.JPG, 0, 12, 12, 12, , , , , , , , , , , , , , , , , , , 56499208, Wed Nov 15 2017 16:33:54 GMT-0500 (Eastern Standard Time), Ultimate_Frisbee, 60
, , space, 0.7120000000000033, , , , , , , , , , , , , , Slide14.JPG, 0, 13, 13, 13, , , , , , , , , , , , , , , , , , , 56499208, Wed Nov 15 2017 16:33:54 GMT-0500 (Eastern Standard Time), Ultimate_Frisbee, 60
, , , , 0, 2.171999999999997, space, 0.3649999999999949, left, 2.486000000000004, , , , , , , , , , , , , , , , , frizFarLeft.jpg, The force is forehand., left, 0, 0, 0, 0, frizFarLeft.jpg, The force is forehand., left, , , , , 56499208, Wed Nov 15 2017 16:33:54 GMT-0500 (Eastern Standard Time), Ultimate_Frisbee, 60
, , , , , , , , right, 1.1119999999999948, , , , , , , , , , , , , , , , , frizNearLeft.jpg, The force is away., right, 0, 1, 1, 1, frizNearLeft.jpg, The force is away., right, , , , , 56499208, Wed Nov 15 2017 16:33:54 GMT-0500 (Eastern Standard Time), Ultimate_Frisbee, 60
, , , , , , , , right, 1.774000000000001, , , , , , , , , , , , , , , , , frizFarRight.jpg, The force is backhand., right, 0, 2, 2, 2, frizFarRight.jpg, The force is backhand., right, , , , , 56499208, Wed Nov 15 2017 16:33:54 GMT-0500 (Eastern Standard Time), Ultimate_Frisbee, 60
, , , , , , , , right, 1.1270000000000095, , , , , , , , , , , , , , , , , frizNearRight.jpg, The force is home., right, 0, 3, 3, 3, frizNearRight.jpg, The force is home., right, , , , , 56499208, Wed Nov 15 2017 16:33:54 GMT-0500 (Eastern Standard Time), Ultimate_Frisbee, 60
, , , , , , , , left, 1.6910000000000025, , , , , , , , , , , , , , , , , frizNearLeft.jpg, The force is backhand., left, 0, 4, 4, 4, frizNearLeft.jpg, The force is backhand., left, , , , , 56499208, Wed Nov 15 2017 16:33:54 GMT-0500 (Eastern Standard Time), Ultimate_Frisbee, 60
, , , , , , , , right, 1.5079999999999956, , , , , , , , , , , , , , , , , frizNearRight.jpg, The force is home., right, 0, 5, 5, 5, frizNearRight.jpg, The force is home., right, , , , , 56499208, Wed Nov 15 2017 16:33:54 GMT-0500 (Eastern Standard Time), Ultimate_Frisbee, 60
, , , , , , , , right, 1.5259999999999962, , , , , , , , , , , , , , , , , frizNearLeft.jpg, The force is away., right, 0, 6, 6, 6, frizNearLeft.jpg, The force is away., right, , , , , 56499208, Wed Nov 15 2017 16:33:54 GMT-0500 (Eastern Standard Time), Ultimate_Frisbee, 60
, , , , , , , , left, 2.603999999999985, , , , , , , , , , , , , , , , , frizFarLeft.jpg, The force is forehand., left, 0, 7, 7, 7, frizFarLeft.jpg, The force is forehand., left, , , , , 56499208, Wed Nov 15 2017 16:33:54 GMT-0500 (Eastern Standard Time), Ultimate_Frisbee, 60
, , , , , , , , , , space, 4.906999999999982, left, 1, 1.157999999999987, , , , , , , , , , , , frizNearLeft.jpg, The force is home., left, , , , , frizNearLeft.jpg, The force is home., left, 0, 0, 0, 10, 56499208, Wed Nov 15 2017 16:33:54 GMT-0500 (Eastern Standard Time), Ultimate_Frisbee, 60
, , , , , , , , , , , , right, 1, 2.02200000000002, , , , , , , , , , , , frizNearRight.jpg, The force is forehand., right, , , , , frizNearRight.jpg, The force is forehand., right, 0, 1, 1, 3, 56499208, Wed Nov 15 2017 16:33:54 GMT-0500 (Eastern Standard Time), Ultimate_Frisbee, 60
, , , , , , , , , , , , right, 1, 1.5760000000000218, , , , , , , , , , , , frizFarRight.jpg, The force is home., right, , , , , frizFarRight.jpg, The force is home., right, 0, 2, 2, 9, 56499208, Wed Nov 15 2017 16:33:54 GMT-0500 (Eastern Standard Time), Ultimate_Frisbee, 60
, , , , , , , , , , , , right, 1, 1.7750000000000057, , , , , , , , , , , , frizFarLeft.jpg, The force is backhand., right, , , , , frizFarLeft.jpg, The force is backhand., right, 0, 3, 3, 4, 56499208, Wed Nov 15 2017 16:33:54 GMT-0500 (Eastern Standard Time), Ultimate_Frisbee, 60
, , , , , , , , , , , , right, 1, 1.8899999999999864, , , , , , , , , , , , frizNearRight.jpg, The force is home., right, , , , , frizNearRight.jpg, The force is home., right, 0, 4, 4, 11, 56499208, Wed Nov 15 2017 16:33:54 GMT-0500 (Eastern Standard Time), Ultimate_Frisbee, 60
, , , , , , , , , , , , right, 1, 1.1940000000000168, , , , , , , , , , , , frizFarLeft.jpg, The force is away., right, , , , , frizFarLeft.jpg, The force is away., right, 0, 5, 5, 12, 56499208, Wed Nov 15 2017 16:33:54 GMT-0500 (Eastern Standard Time), Ultimate_Frisbee, 60
, , , , , , , , , , , , right, 0, 1.0949999999999989, , , , , , , , , , , , frizNearRight.jpg, The force is backhand., left, , , , , frizNearRight.jpg, The force is backhand., left, 0, 6, 6, 7, 56499208, Wed Nov 15 2017 16:33:54 GMT-0500 (Eastern Standard Time), Ultimate_Frisbee, 60
, , , , , , , , , , , , left, 1, 1.5589999999999975, , , , , , , , , , , , frizFarLeft.jpg, The force is home., left, , , , , frizFarLeft.jpg, The force is home., left, 0, 7, 7, 8, 56499208, Wed Nov 15 2017 16:33:54 GMT-0500 (Eastern Standard Time), Ultimate_Frisbee, 60
, , , , , , , , , , , , right, 1, 2.3380000000000223, , , , , , , , , , , , frizFarRight.jpg, The force is backhand., right, , , , , frizFarRight.jpg, The force is backhand., right, 0, 8, 8, 5, 56499208, Wed Nov 15 2017 16:33:54 GMT-0500 (Eastern Standard Time), Ultimate_Frisbee, 60
, , , , , , , , , , , , right, 1, 2.5039999999999907, , , , , , , , , , , , frizNearLeft.jpg, The force is forehand., right, , , , , frizNearLeft.jpg, The force is forehand., right, 0, 9, 9, 2, 56499208, Wed Nov 15 2017 16:33:54 GMT-0500 (Eastern Standard Time), Ultimate_Frisbee, 60
, , , , , , , , , , , , left, 1, 1.0790000000000077, , , , , , , , , , , , frizNearLeft.jpg, The force is backhand., left, , , , , frizNearLeft.jpg, The force is backhand., left, 0, 10, 10, 6, 56499208, Wed Nov 15 2017 16:33:54 GMT-0500 (Eastern Standard Time), Ultimate_Frisbee, 60
, , , , , , , , , , , , left, 1, 1.078000000000003, , , , , , , , , , , , frizNearRight.jpg, The force is away., left, , , , , frizNearRight.jpg, The force is away., left, 0, 11, 11, 15, 56499208, Wed Nov 15 2017 16:33:54 GMT-0500 (Eastern Standard Time), Ultimate_Frisbee, 60
, , , , , , , , , , , , left, 1, 1.641999999999996, , , , , , , , , , , , frizFarRight.jpg, The force is forehand., left, , , , , frizFarRight.jpg, The force is forehand., left, 0, 12, 12, 1, 56499208, Wed Nov 15 2017 16:33:54 GMT-0500 (Eastern Standard Time), Ultimate_Frisbee, 60
, , , , , , , , , , , , right, 1, 2.9010000000000105, , , , , , , , , , , , frizNearLeft.jpg, The force is away., right, , , , , frizNearLeft.jpg, The force is away., right, 0, 13, 13, 14, 56499208, Wed Nov 15 2017 16:33:54 GMT-0500 (Eastern Standard Time), Ultimate_Frisbee, 60
, , , , , , , , , , , , left, 1, 1.7909999999999968, , , , , , , , , , , , frizFarLeft.jpg, The force is forehand., left, , , , , frizFarLeft.jpg, The force is forehand., left, 0, 14, 14, 0, 56499208, Wed Nov 15 2017 16:33:54 GMT-0500 (Eastern Standard Time), Ultimate_Frisbee, 60
, , , , , , , , , , , , left, 1, 1.5930000000000177, , , , , , , , , , , , frizFarRight.jpg, The force is away., left, , , , , frizFarRight.jpg, The force is away., left, 0, 15, 15, 13, 56499208, Wed Nov 15 2017 16:33:54 GMT-0500 (Eastern Standard Time), Ultimate_Frisbee, 60
, , , , , , , , , , , , left, 1, 0.8109999999999786, , , , , , , , , , , , frizFarRight.jpg, The force is away., left, , , , , frizFarRight.jpg, The force is away., left, 1, 0, 16, 13, 56499208, Wed Nov 15 2017 16:33:54 GMT-0500 (Eastern Standard Time), Ultimate_Frisbee, 60
, , , , , , , , , , , , right, 1, 1.2920000000000016, , , , , , , , , , , , frizFarLeft.jpg, The force is away., right, , , , , frizFarLeft.jpg, The force is away., right, 1, 1, 17, 12, 56499208, Wed Nov 15 2017 16:33:54 GMT-0500 (Eastern Standard Time), Ultimate_Frisbee, 60
, , , , , , , , , , , , left, 1, 1.2940000000000111, , , , , , , , , , , , frizNearRight.jpg, The force is backhand., left, , , , , frizNearRight.jpg, The force is backhand., left, 1, 2, 18, 7, 56499208, Wed Nov 15 2017 16:33:54 GMT-0500 (Eastern Standard Time), Ultimate_Frisbee, 60
, , , , , , , , , , , , right, 1, 1.9080000000000155, , , , , , , , , , , , frizFarLeft.jpg, The force is backhand., right, , , , , frizFarLeft.jpg, The force is backhand., right, 1, 3, 19, 4, 56499208, Wed Nov 15 2017 16:33:54 GMT-0500 (Eastern Standard Time), Ultimate_Frisbee, 60
, , , , , , , , , , , , left, 1, 1.2419999999999902, , , , , , , , , , , , frizFarLeft.jpg, The force is home., left, , , , , frizFarLeft.jpg, The force is home., left, 1, 4, 20, 8, 56499208, Wed Nov 15 2017 16:33:54 GMT-0500 (Eastern Standard Time), Ultimate_Frisbee, 60
, , , , , , , , , , , , right, 1, 1.842000000000013, , , , , , , , , , , , frizFarRight.jpg, The force is backhand., right, , , , , frizFarRight.jpg, The force is backhand., right, 1, 5, 21, 5, 56499208, Wed Nov 15 2017 16:33:54 GMT-0500 (Eastern Standard Time), Ultimate_Frisbee, 60
, , , , , , , , , , , , right, 1, 2.272999999999996, , , , , , , , , , , , frizNearLeft.jpg, The force is away., right, , , , , frizNearLeft.jpg, The force is away., right, 1, 6, 22, 14, 56499208, Wed Nov 15 2017 16:33:54 GMT-0500 (Eastern Standard Time), Ultimate_Frisbee, 60
, , , , , , , , , , , , right, 1, 1.5090000000000146, , , , , , , , , , , , frizNearRight.jpg, The force is forehand., right, , , , , frizNearRight.jpg, The force is forehand., right, 1, 7, 23, 3, 56499208, Wed Nov 15 2017 16:33:54 GMT-0500 (Eastern Standard Time), Ultimate_Frisbee, 60
, , , , , , , , , , , , right, 1, 1.0279999999999916, , , , , , , , , , , , frizNearRight.jpg, The force is home., right, , , , , frizNearRight.jpg, The force is home., right, 1, 8, 24, 11, 56499208, Wed Nov 15 2017 16:33:54 GMT-0500 (Eastern Standard Time), Ultimate_Frisbee, 60
, , , , , , , , , , , , right, 1, 1.2439999999999998, , , , , , , , , , , , frizFarRight.jpg, The force is home., right, , , , , frizFarRight.jpg, The force is home., right, 1, 9, 25, 9, 56499208, Wed Nov 15 2017 16:33:54 GMT-0500 (Eastern Standard Time), Ultimate_Frisbee, 60
, , , , , , , , , , , , left, 1, 1.3430000000000177, , , , , , , , , , , , frizFarRight.jpg, The force is forehand., left, , , , , frizFarRight.jpg, The force is forehand., left, 1, 10, 26, 1, 56499208, Wed Nov 15 2017 16:33:54 GMT-0500 (Eastern Standard Time), Ultimate_Frisbee, 60
, , , , , , , , , , , , left, 1, 1.4099999999999966, , , , , , , , , , , , frizNearLeft.jpg, The force is home., left, , , , , frizNearLeft.jpg, The force is home., left, 1, 11, 27, 10, 56499208, Wed Nov 15 2017 16:33:54 GMT-0500 (Eastern Standard Time), Ultimate_Frisbee, 60
, , , , , , , , , , , , left, 1, 1.6910000000000025, , , , , , , , , , , , frizFarLeft.jpg, The force is forehand., left, , , , , frizFarLeft.jpg, The force is forehand., left, 1, 12, 28, 0, 56499208, Wed Nov 15 2017 16:33:54 GMT-0500 (Eastern Standard Time), Ultimate_Frisbee, 60
, , , , , , , , , , , , right, 1, 1.657999999999987, , , , , , , , , , , , frizNearLeft.jpg, The force is forehand., right, , , , , frizNearLeft.jpg, The force is forehand., right, 1, 13, 29, 2, 56499208, Wed Nov 15 2017 16:33:54 GMT-0500 (Eastern Standard Time), Ultimate_Frisbee, 60
, , , , , , , , , , , , left, 1, 1.01400000000001, , , , , , , , , , , , frizNearRight.jpg, The force is away., left, , , , , frizNearRight.jpg, The force is away., left, 1, 14, 30, 15, 56499208, Wed Nov 15 2017 16:33:54 GMT-0500 (Eastern Standard Time), Ultimate_Frisbee, 60
, , , , , , , , , , , , left, 1, 1.3120000000000118, , , , , , , , , , , , frizNearLeft.jpg, The force is backhand., left, , , , , frizNearLeft.jpg, The force is backhand., left, 1, 15, 31, 6, 56499208, Wed Nov 15 2017 16:33:54 GMT-0500 (Eastern Standard Time), Ultimate_Frisbee, 60
, , , , , , , , , , , , left, 1, 1.2110000000000127, , , , , , , , , , , , frizFarRight.jpg, The force is forehand., left, , , , , frizFarRight.jpg, The force is forehand., left, 2, 0, 32, 1, 56499208, Wed Nov 15 2017 16:33:54 GMT-0500 (Eastern Standard Time), Ultimate_Frisbee, 60
, , , , , , , , , , , , right, 1, 1.309000000000026, , , , , , , , , , , , frizNearLeft.jpg, The force is forehand., right, , , , , frizNearLeft.jpg, The force is forehand., right, 2, 1, 33, 2, 56499208, Wed Nov 15 2017 16:33:54 GMT-0500 (Eastern Standard Time), Ultimate_Frisbee, 60
, , , , , , , , , , , , left, 1, 0.8950000000000387, , , , , , , , , , , , frizNearRight.jpg, The force is away., left, , , , , frizNearRight.jpg, The force is away., left, 2, 2, 34, 15, 56499208, Wed Nov 15 2017 16:33:54 GMT-0500 (Eastern Standard Time), Ultimate_Frisbee, 60
, , , , , , , , , , , , right, 1, 0.8459999999999468, , , , , , , , , , , , frizFarRight.jpg, The force is home., right, , , , , frizFarRight.jpg, The force is home., right, 2, 3, 35, 9, 56499208, Wed Nov 15 2017 16:33:54 GMT-0500 (Eastern Standard Time), Ultimate_Frisbee, 60
, , , , , , , , , , , , left, 1, 1.724999999999966, , , , , , , , , , , , frizFarRight.jpg, The force is away., left, , , , , frizFarRight.jpg, The force is away., left, 2, 4, 36, 13, 56499208, Wed Nov 15 2017 16:33:54 GMT-0500 (Eastern Standard Time), Ultimate_Frisbee, 60
, , , , , , , , , , , , left, 1, 0.9449999999999932, , , , , , , , , , , , frizNearRight.jpg, The force is backhand., left, , , , , frizNearRight.jpg, The force is backhand., left, 2, 5, 37, 7, 56499208, Wed Nov 15 2017 16:33:54 GMT-0500 (Eastern Standard Time), Ultimate_Frisbee, 60
, , , , , , , , , , , , right, 1, 2.569999999999993, , , , , , , , , , , , frizFarLeft.jpg, The force is backhand., right, , , , , frizFarLeft.jpg, The force is backhand., right, 2, 6, 38, 4, 56499208, Wed Nov 15 2017 16:33:54 GMT-0500 (Eastern Standard Time), Ultimate_Frisbee, 60
, , , , , , , , , , , , left, 1, 1.0459999999999923, , , , , , , , , , , , frizFarLeft.jpg, The force is forehand., left, , , , , frizFarLeft.jpg, The force is forehand., left, 2, 7, 39, 0, 56499208, Wed Nov 15 2017 16:33:54 GMT-0500 (Eastern Standard Time), Ultimate_Frisbee, 60
, , , , , , , , , , , , right, 1, 1.375, , , , , , , , , , , , frizFarLeft.jpg, The force is away., right, , , , , frizFarLeft.jpg, The force is away., right, 2, 8, 40, 12, 56499208, Wed Nov 15 2017 16:33:54 GMT-0500 (Eastern Standard Time), Ultimate_Frisbee, 60
, , , , , , , , , , , , left, 1, 1.6750000000000114, , , , , , , , , , , , frizNearLeft.jpg, The force is backhand., left, , , , , frizNearLeft.jpg, The force is backhand., left, 2, 9, 41, 6, 56499208, Wed Nov 15 2017 16:33:54 GMT-0500 (Eastern Standard Time), Ultimate_Frisbee, 60
, , , , , , , , , , , , right, 1, 1.1610000000000014, , , , , , , , , , , , frizNearRight.jpg, The force is home., right, , , , , frizNearRight.jpg, The force is home., right, 2, 10, 42, 11, 56499208, Wed Nov 15 2017 16:33:54 GMT-0500 (Eastern Standard Time), Ultimate_Frisbee, 60
, , , , , , , , , , , , left, 1, 0.9119999999999777, , , , , , , , , , , , frizNearLeft.jpg, The force is home., left, , , , , frizNearLeft.jpg, The force is home., left, 2, 11, 43, 10, 56499208, Wed Nov 15 2017 16:33:54 GMT-0500 (Eastern Standard Time), Ultimate_Frisbee, 60
, , , , , , , , , , , , right, 1, 2.2549999999999955, , , , , , , , , , , , frizNearLeft.jpg, The force is away., right, , , , , frizNearLeft.jpg, The force is away., right, 2, 12, 44, 14, 56499208, Wed Nov 15 2017 16:33:54 GMT-0500 (Eastern Standard Time), Ultimate_Frisbee, 60
, , , , , , , , , , , , left, 1, 0.9770000000000323, , , , , , , , , , , , frizFarLeft.jpg, The force is home., left, , , , , frizFarLeft.jpg, The force is home., left, 2, 13, 45, 8, 56499208, Wed Nov 15 2017 16:33:54 GMT-0500 (Eastern Standard Time), Ultimate_Frisbee, 60
, , , , , , , , , , , , right, 1, 1.3769999999999527, , , , , , , , , , , , frizFarRight.jpg, The force is backhand., right, , , , , frizFarRight.jpg, The force is backhand., right, 2, 14, 46, 5, 56499208, Wed Nov 15 2017 16:33:54 GMT-0500 (Eastern Standard Time), Ultimate_Frisbee, 60
, , , , , , , , , , , , right, 1, 1.3260000000000218, , , , , , , , , , , , frizNearRight.jpg, The force is forehand., right, , , , , frizNearRight.jpg, The force is forehand., right, 2, 15, 47, 3, 56499208, Wed Nov 15 2017 16:33:54 GMT-0500 (Eastern Standard Time), Ultimate_Frisbee, 60
, , , , , , , , , , , , left, 1, 0.9120000000000346, , , , , , , , , , , , frizFarLeft.jpg, The force is home., left, , , , , frizFarLeft.jpg, The force is home., left, 3, 0, 48, 8, 56499208, Wed Nov 15 2017 16:33:54 GMT-0500 (Eastern Standard Time), Ultimate_Frisbee, 60
, , , , , , , , , , , , right, 1, 1.6260000000000332, , , , , , , , , , , , frizNearRight.jpg, The force is forehand., right, , , , , frizNearRight.jpg, The force is forehand., right, 3, 1, 49, 3, 56499208, Wed Nov 15 2017 16:33:54 GMT-0500 (Eastern Standard Time), Ultimate_Frisbee, 60
, , , , , , , , , , , , right, 1, 0.7789999999999964, , , , , , , , , , , , frizNearRight.jpg, The force is home., right, , , , , frizNearRight.jpg, The force is home., right, 3, 2, 50, 11, 56499208, Wed Nov 15 2017 16:33:54 GMT-0500 (Eastern Standard Time), Ultimate_Frisbee, 60
, , , , , , , , , , , , left, 1, 0.6299999999999955, , , , , , , , , , , , frizNearLeft.jpg, The force is home., left, , , , , frizNearLeft.jpg, The force is home., left, 3, 3, 51, 10, 56499208, Wed Nov 15 2017 16:33:54 GMT-0500 (Eastern Standard Time), Ultimate_Frisbee, 60
, , , , , , , , , , , , left, 1, 2.2060000000000173, , , , , , , , , , , , frizFarLeft.jpg, The force is forehand., left, , , , , frizFarLeft.jpg, The force is forehand., left, 3, 4, 52, 0, 56499208, Wed Nov 15 2017 16:33:54 GMT-0500 (Eastern Standard Time), Ultimate_Frisbee, 60
, , , , , , , , , , , , right, 1, 1.4580000000000268, , , , , , , , , , , , frizFarLeft.jpg, The force is away., right, , , , , frizFarLeft.jpg, The force is away., right, 3, 5, 53, 12, 56499208, Wed Nov 15 2017 16:33:54 GMT-0500 (Eastern Standard Time), Ultimate_Frisbee, 60
, , , , , , , , , , , , right, 1, 1.3929999999999723, , , , , , , , , , , , frizNearLeft.jpg, The force is away., right, , , , , frizNearLeft.jpg, The force is away., right, 3, 6, 54, 14, 56499208, Wed Nov 15 2017 16:33:54 GMT-0500 (Eastern Standard Time), Ultimate_Frisbee, 60
, , , , , , , , , , , , left, 1, 1.0949999999999704, , , , , , , , , , , , frizNearRight.jpg, The force is away., left, , , , , frizNearRight.jpg, The force is away., left, 3, 7, 55, 15, 56499208, Wed Nov 15 2017 16:33:54 GMT-0500 (Eastern Standard Time), Ultimate_Frisbee, 60
, , , , , , , , , , , , right, 1, 2.8859999999999673, , , , , , , , , , , , frizFarLeft.jpg, The force is backhand., right, , , , , frizFarLeft.jpg, The force is backhand., right, 3, 8, 56, 4, 56499208, Wed Nov 15 2017 16:33:54 GMT-0500 (Eastern Standard Time), Ultimate_Frisbee, 60
, , , , , , , , , , , , right, 1, 1.1429999999999723, , , , , , , , , , , , frizFarRight.jpg, The force is backhand., right, , , , , frizFarRight.jpg, The force is backhand., right, 3, 9, 57, 5, 56499208, Wed Nov 15 2017 16:33:54 GMT-0500 (Eastern Standard Time), Ultimate_Frisbee, 60
, , , , , , , , , , , , left, 1, 0.6970000000000027, , , , , , , , , , , , frizFarRight.jpg, The force is forehand., left, , , , , frizFarRight.jpg, The force is forehand., left, 3, 10, 58, 1, 56499208, Wed Nov 15 2017 16:33:54 GMT-0500 (Eastern Standard Time), Ultimate_Frisbee, 60
, , , , , , , , , , , , left, 1, 1.3280000000000314, , , , , , , , , , , , frizNearRight.jpg, The force is backhand., left, , , , , frizNearRight.jpg, The force is backhand., left, 3, 11, 59, 7, 56499208, Wed Nov 15 2017 16:33:54 GMT-0500 (Eastern Standard Time), Ultimate_Frisbee, 60
, , , , , , , , , , , , right, 1, 0.8610000000000468, , , , , , , , , , , , frizFarRight.jpg, The force is home., right, , , , , frizFarRight.jpg, The force is home., right, 3, 12, 60, 9, 56499208, Wed Nov 15 2017 16:33:54 GMT-0500 (Eastern Standard Time), Ultimate_Frisbee, 60
, , , , , , , , , , , , left, 1, 1.3280000000000314, , , , , , , , , , , , frizNearLeft.jpg, The force is backhand., left, , , , , frizNearLeft.jpg, The force is backhand., left, 3, 13, 61, 6, 56499208, Wed Nov 15 2017 16:33:54 GMT-0500 (Eastern Standard Time), Ultimate_Frisbee, 60
, , , , , , , , , , , , left, 1, 1.1450000000000387, , , , , , , , , , , , frizFarRight.jpg, The force is away., left, , , , , frizFarRight.jpg, The force is away., left, 3, 14, 62, 13, 56499208, Wed Nov 15 2017 16:33:54 GMT-0500 (Eastern Standard Time), Ultimate_Frisbee, 60
, , , , , , , , , , , , right, 1, 1.011000000000024, , , , , , , , , , , , frizNearLeft.jpg, The force is forehand., right, , , , , frizNearLeft.jpg, The force is forehand., right, 3, 15, 63, 2, 56499208, Wed Nov 15 2017 16:33:54 GMT-0500 (Eastern Standard Time), Ultimate_Frisbee, 60
