Continue.keys, Continue.rt, instructions_response.keys, instructions_response.rt, repeat_response.keys, repeat_response.rt, key_resp_5.keys, key_resp_5.rt, key_resp_2.keys, key_resp_2.rt, key_resp_4.keys, key_resp_4.rt, Trials_response.keys, Trials_response.corr, Trials_response.rt, Block_Continue.keys, Block_Continue.rt, Image, instructions_1_loop.thisRepN, instructions_1_loop.thisTrialN, instructions_1_loop.thisN, instructions_1_loop.thisIndex, instructions_2_repeat.thisRepN, instructions_2_repeat.thisTrialN, instructions_2_repeat.thisN, instructions_2_repeat.thisIndex, stim, prompt, answer, trials_2.thisRepN, trials_2.thisTrialN, trials_2.thisN, trials_2.thisIndex, stim, prompt, answer, trials.thisRepN, trials.thisTrialN, trials.thisN, trials.thisIndex, participant, date, expName, frameRate
space, 2.867000000000001, space, 5.583, , , , , , , , , , , , , , Slide1.JPG, 0, 0, 0, 0, , , , , , , , , , , , , , , , , , , 6061126, Mon Aug 21 2017 12:45:16 GMT-0400 (EDT), Ultimate_Frisbee, 60
, , space, 13.784999999999997, , , , , , , , , , , , , , Slide2.JPG, 0, 1, 1, 1, , , , , , , , , , , , , , , , , , , 6061126, Mon Aug 21 2017 12:45:16 GMT-0400 (EDT), Ultimate_Frisbee, 60
, , space, 7.75, , , , , , , , , , , , , , Slide3.JPG, 0, 2, 2, 2, , , , , , , , , , , , , , , , , , , 6061126, Mon Aug 21 2017 12:45:16 GMT-0400 (EDT), Ultimate_Frisbee, 60
, , space, 1.732999999999997, , , , , , , , , , , , , , Slide4.JPG, 0, 3, 3, 3, , , , , , , , , , , , , , , , , , , 6061126, Mon Aug 21 2017 12:45:16 GMT-0400 (EDT), Ultimate_Frisbee, 60
, , space, 12.852000000000004, , , , , , , , , , , , , , Slide5.JPG, 0, 4, 4, 4, , , , , , , , , , , , , , , , , , , 6061126, Mon Aug 21 2017 12:45:16 GMT-0400 (EDT), Ultimate_Frisbee, 60
, , space, 13.434999999999995, , , , , , , , , , , , , , Slide6.JPG, 0, 5, 5, 5, , , , , , , , , , , , , , , , , , , 6061126, Mon Aug 21 2017 12:45:16 GMT-0400 (EDT), Ultimate_Frisbee, 60
, , space, 11.850999999999999, , , , , , , , , , , , , , Slide7.JPG, 0, 6, 6, 6, , , , , , , , , , , , , , , , , , , 6061126, Mon Aug 21 2017 12:45:16 GMT-0400 (EDT), Ultimate_Frisbee, 60
, , space, 7.682999999999993, , , , , , , , , , , , , , Slide8.JPG, 0, 7, 7, 7, , , , , , , , , , , , , , , , , , , 6061126, Mon Aug 21 2017 12:45:16 GMT-0400 (EDT), Ultimate_Frisbee, 60
, , space, 5.834000000000003, , , , , , , , , , , , , , Slide9.JPG, 0, 8, 8, 8, , , , , , , , , , , , , , , , , , , 6061126, Mon Aug 21 2017 12:45:16 GMT-0400 (EDT), Ultimate_Frisbee, 60
, , space, 4.099999999999994, , , , , , , , , , , , , , Slide10.JPG, 0, 9, 9, 9, , , , , , , , , , , , , , , , , , , 6061126, Mon Aug 21 2017 12:45:16 GMT-0400 (EDT), Ultimate_Frisbee, 60
, , space, 2.8499999999999943, , , , , , , , , , , , , , Slide11.JPG, 0, 10, 10, 10, , , , , , , , , , , , , , , , , , , 6061126, Mon Aug 21 2017 12:45:16 GMT-0400 (EDT), Ultimate_Frisbee, 60
, , space, 3.4170000000000016, , , , , , , , , , , , , , Slide12.JPG, 0, 11, 11, 11, , , , , , , , , , , , , , , , , , , 6061126, Mon Aug 21 2017 12:45:16 GMT-0400 (EDT), Ultimate_Frisbee, 60
, , space, 1.2169999999999987, , , , , , , , , , , , , , Slide13.JPG, 0, 12, 12, 12, , , , , , , , , , , , , , , , , , , 6061126, Mon Aug 21 2017 12:45:16 GMT-0400 (EDT), Ultimate_Frisbee, 60
, , space, 1.9339999999999975, , , , , , , , , , , , , , Slide14.JPG, 0, 13, 13, 13, , , , , , , , , , , , , , , , , , , 6061126, Mon Aug 21 2017 12:45:16 GMT-0400 (EDT), Ultimate_Frisbee, 60
, , , , 0, 2.6670000000000016, space, 5.317999999999984, left, 3.0660000000000025, , , , , , , , , , , , , , , , , frizFarLeft.jpg, The force is forehand., left, 0, 0, 0, 0, frizFarLeft.jpg, The force is forehand., left, , , , , 6061126, Mon Aug 21 2017 12:45:16 GMT-0400 (EDT), Ultimate_Frisbee, 60
, , , , , , , , right, 1.4660000000000082, , , , , , , , , , , , , , , , , frizNearLeft.jpg, The force is away., right, 0, 1, 1, 1, frizNearLeft.jpg, The force is away., right, , , , , 6061126, Mon Aug 21 2017 12:45:16 GMT-0400 (EDT), Ultimate_Frisbee, 60
, , , , , , , , right, 2, , , , , , , , , , , , , , , , , frizFarRight.jpg, The force is backhand., right, 0, 2, 2, 2, frizFarRight.jpg, The force is backhand., right, , , , , 6061126, Mon Aug 21 2017 12:45:16 GMT-0400 (EDT), Ultimate_Frisbee, 60
, , , , , , , , right, 1.1839999999999975, , , , , , , , , , , , , , , , , frizNearRight.jpg, The force is home., right, 0, 3, 3, 3, frizNearRight.jpg, The force is home., right, , , , , 6061126, Mon Aug 21 2017 12:45:16 GMT-0400 (EDT), Ultimate_Frisbee, 60
, , , , , , , , left, 1.5490000000000066, , , , , , , , , , , , , , , , , frizNearLeft.jpg, The force is backhand., left, 0, 4, 4, 4, frizNearLeft.jpg, The force is backhand., left, , , , , 6061126, Mon Aug 21 2017 12:45:16 GMT-0400 (EDT), Ultimate_Frisbee, 60
, , , , , , , , right, 0.9990000000000236, , , , , , , , , , , , , , , , , frizNearRight.jpg, The force is home., right, 0, 5, 5, 5, frizNearRight.jpg, The force is home., right, , , , , 6061126, Mon Aug 21 2017 12:45:16 GMT-0400 (EDT), Ultimate_Frisbee, 60
, , , , , , , , right, 1.1169999999999902, , , , , , , , , , , , , , , , , frizNearLeft.jpg, The force is away., right, 0, 6, 6, 6, frizNearLeft.jpg, The force is away., right, , , , , 6061126, Mon Aug 21 2017 12:45:16 GMT-0400 (EDT), Ultimate_Frisbee, 60
, , , , , , , , left, 1.549999999999983, , , , , , , , , , , , , , , , , frizFarLeft.jpg, The force is forehand., left, 0, 7, 7, 7, frizFarLeft.jpg, The force is forehand., left, , , , , 6061126, Mon Aug 21 2017 12:45:16 GMT-0400 (EDT), Ultimate_Frisbee, 60
, , , , , , , , , , space, 4.317000000000007, right, 1, 1.117999999999995, , , , , , , , , , , , frizNearLeft.jpg, The force is forehand., right, , , , , frizNearLeft.jpg, The force is forehand., right, 0, 0, 0, 2, 6061126, Mon Aug 21 2017 12:45:16 GMT-0400 (EDT), Ultimate_Frisbee, 60
, , , , , , , , , , , , right, 1, 1.4329999999999927, , , , , , , , , , , , frizFarLeft.jpg, The force is away., right, , , , , frizFarLeft.jpg, The force is away., right, 0, 1, 1, 12, 6061126, Mon Aug 21 2017 12:45:16 GMT-0400 (EDT), Ultimate_Frisbee, 60
, , , , , , , , , , , , left, 1, 1.549999999999983, , , , , , , , , , , , frizFarLeft.jpg, The force is forehand., left, , , , , frizFarLeft.jpg, The force is forehand., left, 0, 2, 2, 0, 6061126, Mon Aug 21 2017 12:45:16 GMT-0400 (EDT), Ultimate_Frisbee, 60
, , , , , , , , , , , , left, 1, 1.1169999999999902, , , , , , , , , , , , frizNearRight.jpg, The force is backhand., left, , , , , frizNearRight.jpg, The force is backhand., left, 0, 3, 3, 7, 6061126, Mon Aug 21 2017 12:45:16 GMT-0400 (EDT), Ultimate_Frisbee, 60
, , , , , , , , , , , , right, 1, 0.9830000000000041, , , , , , , , , , , , frizFarRight.jpg, The force is home., right, , , , , frizFarRight.jpg, The force is home., right, 0, 4, 4, 9, 6061126, Mon Aug 21 2017 12:45:16 GMT-0400 (EDT), Ultimate_Frisbee, 60
, , , , , , , , , , , , right, 1, 1.7489999999999952, , , , , , , , , , , , frizFarLeft.jpg, The force is backhand., right, , , , , frizFarLeft.jpg, The force is backhand., right, 0, 5, 5, 4, 6061126, Mon Aug 21 2017 12:45:16 GMT-0400 (EDT), Ultimate_Frisbee, 60
, , , , , , , , , , , , left, 1, 1.3160000000000025, , , , , , , , , , , , frizFarRight.jpg, The force is away., left, , , , , frizFarRight.jpg, The force is away., left, 0, 6, 6, 13, 6061126, Mon Aug 21 2017 12:45:16 GMT-0400 (EDT), Ultimate_Frisbee, 60
, , , , , , , , , , , , right, 1, 1.3169999999999789, , , , , , , , , , , , frizNearRight.jpg, The force is forehand., right, , , , , frizNearRight.jpg, The force is forehand., right, 0, 7, 7, 3, 6061126, Mon Aug 21 2017 12:45:16 GMT-0400 (EDT), Ultimate_Frisbee, 60
, , , , , , , , , , , , right, 1, 1.4000000000000057, , , , , , , , , , , , frizNearLeft.jpg, The force is away., right, , , , , frizNearLeft.jpg, The force is away., right, 0, 8, 8, 14, 6061126, Mon Aug 21 2017 12:45:16 GMT-0400 (EDT), Ultimate_Frisbee, 60
, , , , , , , , , , , , right, 1, 1.1659999999999968, , , , , , , , , , , , frizNearRight.jpg, The force is home., right, , , , , frizNearRight.jpg, The force is home., right, 0, 9, 9, 11, 6061126, Mon Aug 21 2017 12:45:16 GMT-0400 (EDT), Ultimate_Frisbee, 60
, , , , , , , , , , , , left, 1, 0.8500000000000227, , , , , , , , , , , , frizNearLeft.jpg, The force is home., left, , , , , frizNearLeft.jpg, The force is home., left, 0, 10, 10, 10, 6061126, Mon Aug 21 2017 12:45:16 GMT-0400 (EDT), Ultimate_Frisbee, 60
, , , , , , , , , , , , right, 1, 1.5839999999999748, , , , , , , , , , , , frizFarRight.jpg, The force is backhand., right, , , , , frizFarRight.jpg, The force is backhand., right, 0, 11, 11, 5, 6061126, Mon Aug 21 2017 12:45:16 GMT-0400 (EDT), Ultimate_Frisbee, 60
, , , , , , , , , , , , left, 1, 0.8990000000000009, , , , , , , , , , , , frizNearRight.jpg, The force is away., left, , , , , frizNearRight.jpg, The force is away., left, 0, 12, 12, 15, 6061126, Mon Aug 21 2017 12:45:16 GMT-0400 (EDT), Ultimate_Frisbee, 60
, , , , , , , , , , , , left, 1, 1.5159999999999911, , , , , , , , , , , , frizNearLeft.jpg, The force is backhand., left, , , , , frizNearLeft.jpg, The force is backhand., left, 0, 13, 13, 6, 6061126, Mon Aug 21 2017 12:45:16 GMT-0400 (EDT), Ultimate_Frisbee, 60
, , , , , , , , , , , , left, 1, 0.8499999999999943, , , , , , , , , , , , frizFarLeft.jpg, The force is home., left, , , , , frizFarLeft.jpg, The force is home., left, 0, 14, 14, 8, 6061126, Mon Aug 21 2017 12:45:16 GMT-0400 (EDT), Ultimate_Frisbee, 60
, , , , , , , , , , , , left, 1, 1.6839999999999975, , , , , , , , , , , , frizFarRight.jpg, The force is forehand., left, , , , , frizFarRight.jpg, The force is forehand., left, 0, 15, 15, 1, 6061126, Mon Aug 21 2017 12:45:16 GMT-0400 (EDT), Ultimate_Frisbee, 60
, , , , , , , , , , , , right, 1, 1.099000000000018, , , , , , , , , , , , frizNearRight.jpg, The force is forehand., right, , , , , frizNearRight.jpg, The force is forehand., right, 1, 0, 16, 3, 6061126, Mon Aug 21 2017 12:45:16 GMT-0400 (EDT), Ultimate_Frisbee, 60
, , , , , , , , , , , , right, 1, 0.8499999999999943, , , , , , , , , , , , frizNearRight.jpg, The force is home., right, , , , , frizNearRight.jpg, The force is home., right, 1, 1, 17, 11, 6061126, Mon Aug 21 2017 12:45:16 GMT-0400 (EDT), Ultimate_Frisbee, 60
, , , , , , , , , , , , right, 1, 0.8499999999999943, , , , , , , , , , , , frizFarLeft.jpg, The force is away., right, , , , , frizFarLeft.jpg, The force is away., right, 1, 2, 18, 12, 6061126, Mon Aug 21 2017 12:45:16 GMT-0400 (EDT), Ultimate_Frisbee, 60
, , , , , , , , , , , , left, 1, 1.1829999999999927, , , , , , , , , , , , frizFarLeft.jpg, The force is forehand., left, , , , , frizFarLeft.jpg, The force is forehand., left, 1, 3, 19, 0, 6061126, Mon Aug 21 2017 12:45:16 GMT-0400 (EDT), Ultimate_Frisbee, 60
, , , , , , , , , , , , left, 1, 1.450000000000017, , , , , , , , , , , , frizFarRight.jpg, The force is forehand., left, , , , , frizFarRight.jpg, The force is forehand., left, 1, 4, 20, 1, 6061126, Mon Aug 21 2017 12:45:16 GMT-0400 (EDT), Ultimate_Frisbee, 60
, , , , , , , , , , , , right, 1, 0.6669999999999732, , , , , , , , , , , , frizFarRight.jpg, The force is home., right, , , , , frizFarRight.jpg, The force is home., right, 1, 5, 21, 9, 6061126, Mon Aug 21 2017 12:45:16 GMT-0400 (EDT), Ultimate_Frisbee, 60
, , , , , , , , , , , , right, 1, 0.7839999999999918, , , , , , , , , , , , frizNearLeft.jpg, The force is away., right, , , , , frizNearLeft.jpg, The force is away., right, 1, 6, 22, 14, 6061126, Mon Aug 21 2017 12:45:16 GMT-0400 (EDT), Ultimate_Frisbee, 60
, , , , , , , , , , , , left, 1, 0.8660000000000423, , , , , , , , , , , , frizFarLeft.jpg, The force is home., left, , , , , frizFarLeft.jpg, The force is home., left, 1, 7, 23, 8, 6061126, Mon Aug 21 2017 12:45:16 GMT-0400 (EDT), Ultimate_Frisbee, 60
, , , , , , , , , , , , left, 1, 0.6669999999999732, , , , , , , , , , , , frizNearRight.jpg, The force is away., left, , , , , frizNearRight.jpg, The force is away., left, 1, 8, 24, 15, 6061126, Mon Aug 21 2017 12:45:16 GMT-0400 (EDT), Ultimate_Frisbee, 60
, , , , , , , , , , , , right, 1, 1.1659999999999968, , , , , , , , , , , , frizFarLeft.jpg, The force is backhand., right, , , , , frizFarLeft.jpg, The force is backhand., right, 1, 9, 25, 4, 6061126, Mon Aug 21 2017 12:45:16 GMT-0400 (EDT), Ultimate_Frisbee, 60
, , , , , , , , , , , , left, 1, 1.1000000000000227, , , , , , , , , , , , frizNearLeft.jpg, The force is backhand., left, , , , , frizNearLeft.jpg, The force is backhand., left, 1, 10, 26, 6, 6061126, Mon Aug 21 2017 12:45:16 GMT-0400 (EDT), Ultimate_Frisbee, 60
, , , , , , , , , , , , right, 1, 1.6669999999999732, , , , , , , , , , , , frizFarRight.jpg, The force is backhand., right, , , , , frizFarRight.jpg, The force is backhand., right, 1, 11, 27, 5, 6061126, Mon Aug 21 2017 12:45:16 GMT-0400 (EDT), Ultimate_Frisbee, 60
, , , , , , , , , , , , right, 1, 1.3000000000000114, , , , , , , , , , , , frizNearLeft.jpg, The force is forehand., right, , , , , frizNearLeft.jpg, The force is forehand., right, 1, 12, 28, 2, 6061126, Mon Aug 21 2017 12:45:16 GMT-0400 (EDT), Ultimate_Frisbee, 60
, , , , , , , , , , , , left, 1, 0.8660000000000423, , , , , , , , , , , , frizNearLeft.jpg, The force is home., left, , , , , frizNearLeft.jpg, The force is home., left, 1, 13, 29, 10, 6061126, Mon Aug 21 2017 12:45:16 GMT-0400 (EDT), Ultimate_Frisbee, 60
, , , , , , , , , , , , left, 1, 1.1829999999999927, , , , , , , , , , , , frizNearRight.jpg, The force is backhand., left, , , , , frizNearRight.jpg, The force is backhand., left, 1, 14, 30, 7, 6061126, Mon Aug 21 2017 12:45:16 GMT-0400 (EDT), Ultimate_Frisbee, 60
, , , , , , , , , , , , left, 1, 1.0989999999999895, , , , , , , , , , , , frizFarRight.jpg, The force is away., left, , , , , frizFarRight.jpg, The force is away., left, 1, 15, 31, 13, 6061126, Mon Aug 21 2017 12:45:16 GMT-0400 (EDT), Ultimate_Frisbee, 60
, , , , , , , , , , , , left, 1, 2.0819999999999936, , , , , , , , , , , , frizFarLeft.jpg, The force is forehand., left, , , , , frizFarLeft.jpg, The force is forehand., left, 2, 0, 32, 0, 6061126, Mon Aug 21 2017 12:45:16 GMT-0400 (EDT), Ultimate_Frisbee, 60
, , , , , , , , , , , , left, 1, 0.9499999999999886, , , , , , , , , , , , frizNearRight.jpg, The force is backhand., left, , , , , frizNearRight.jpg, The force is backhand., left, 2, 1, 33, 7, 6061126, Mon Aug 21 2017 12:45:16 GMT-0400 (EDT), Ultimate_Frisbee, 60
, , , , , , , , , , , , right, 1, 0.8000000000000114, , , , , , , , , , , , frizNearRight.jpg, The force is forehand., right, , , , , frizNearRight.jpg, The force is forehand., right, 2, 2, 34, 3, 6061126, Mon Aug 21 2017 12:45:16 GMT-0400 (EDT), Ultimate_Frisbee, 60
, , , , , , , , , , , , right, 1, 0.8670000000000186, , , , , , , , , , , , frizNearLeft.jpg, The force is away., right, , , , , frizNearLeft.jpg, The force is away., right, 2, 3, 35, 14, 6061126, Mon Aug 21 2017 12:45:16 GMT-0400 (EDT), Ultimate_Frisbee, 60
, , , , , , , , , , , , left, 1, 0.9660000000000082, , , , , , , , , , , , frizFarRight.jpg, The force is away., left, , , , , frizFarRight.jpg, The force is away., left, 2, 4, 36, 13, 6061126, Mon Aug 21 2017 12:45:16 GMT-0400 (EDT), Ultimate_Frisbee, 60
, , , , , , , , , , , , right, 1, 0.5, , , , , , , , , , , , frizNearRight.jpg, The force is home., right, , , , , frizNearRight.jpg, The force is home., right, 2, 5, 37, 11, 6061126, Mon Aug 21 2017 12:45:16 GMT-0400 (EDT), Ultimate_Frisbee, 60
, , , , , , , , , , , , left, 1, 1.1330000000000382, , , , , , , , , , , , frizFarRight.jpg, The force is forehand., left, , , , , frizFarRight.jpg, The force is forehand., left, 2, 6, 38, 1, 6061126, Mon Aug 21 2017 12:45:16 GMT-0400 (EDT), Ultimate_Frisbee, 60
, , , , , , , , , , , , left, 1, 0.9329999999999927, , , , , , , , , , , , frizNearLeft.jpg, The force is home., left, , , , , frizNearLeft.jpg, The force is home., left, 2, 7, 39, 10, 6061126, Mon Aug 21 2017 12:45:16 GMT-0400 (EDT), Ultimate_Frisbee, 60
, , , , , , , , , , , , right, 1, 1.2160000000000082, , , , , , , , , , , , frizFarRight.jpg, The force is backhand., right, , , , , frizFarRight.jpg, The force is backhand., right, 2, 8, 40, 5, 6061126, Mon Aug 21 2017 12:45:16 GMT-0400 (EDT), Ultimate_Frisbee, 60
, , , , , , , , , , , , right, 1, 0.8659999999999854, , , , , , , , , , , , frizFarRight.jpg, The force is home., right, , , , , frizFarRight.jpg, The force is home., right, 2, 9, 41, 9, 6061126, Mon Aug 21 2017 12:45:16 GMT-0400 (EDT), Ultimate_Frisbee, 60
, , , , , , , , , , , , right, 1, 0.8840000000000146, , , , , , , , , , , , frizNearLeft.jpg, The force is forehand., right, , , , , frizNearLeft.jpg, The force is forehand., right, 2, 10, 42, 2, 6061126, Mon Aug 21 2017 12:45:16 GMT-0400 (EDT), Ultimate_Frisbee, 60
, , , , , , , , , , , , left, 1, 0.7830000000000155, , , , , , , , , , , , frizFarLeft.jpg, The force is home., left, , , , , frizFarLeft.jpg, The force is home., left, 2, 11, 43, 8, 6061126, Mon Aug 21 2017 12:45:16 GMT-0400 (EDT), Ultimate_Frisbee, 60
, , , , , , , , , , , , right, 1, 1.2169999999999845, , , , , , , , , , , , frizFarLeft.jpg, The force is backhand., right, , , , , frizFarLeft.jpg, The force is backhand., right, 2, 12, 44, 4, 6061126, Mon Aug 21 2017 12:45:16 GMT-0400 (EDT), Ultimate_Frisbee, 60
, , , , , , , , , , , , left, 1, 1.1000000000000227, , , , , , , , , , , , frizNearLeft.jpg, The force is backhand., left, , , , , frizNearLeft.jpg, The force is backhand., left, 2, 13, 45, 6, 6061126, Mon Aug 21 2017 12:45:16 GMT-0400 (EDT), Ultimate_Frisbee, 60
, , , , , , , , , , , , left, 1, 0.6659999999999968, , , , , , , , , , , , frizNearRight.jpg, The force is away., left, , , , , frizNearRight.jpg, The force is away., left, 2, 14, 46, 15, 6061126, Mon Aug 21 2017 12:45:16 GMT-0400 (EDT), Ultimate_Frisbee, 60
, , , , , , , , , , , , right, 1, 0.9660000000000082, , , , , , , , , , , , frizFarLeft.jpg, The force is away., right, , , , , frizFarLeft.jpg, The force is away., right, 2, 15, 47, 12, 6061126, Mon Aug 21 2017 12:45:16 GMT-0400 (EDT), Ultimate_Frisbee, 60
, , , , , , , , , , , , left, 1, 1.1510000000000105, , , , , , , , , , , , frizFarRight.jpg, The force is forehand., left, , , , , frizFarRight.jpg, The force is forehand., left, 3, 0, 48, 1, 6061126, Mon Aug 21 2017 12:45:16 GMT-0400 (EDT), Ultimate_Frisbee, 60
, , , , , , , , , , , , right, 1, 1.2000000000000455, , , , , , , , , , , , frizNearRight.jpg, The force is forehand., right, , , , , frizNearRight.jpg, The force is forehand., right, 3, 1, 49, 3, 6061126, Mon Aug 21 2017 12:45:16 GMT-0400 (EDT), Ultimate_Frisbee, 60
, , , , , , , , , , , , right, 1, 1.75, , , , , , , , , , , , frizFarRight.jpg, The force is backhand., right, , , , , frizFarRight.jpg, The force is backhand., right, 3, 2, 50, 5, 6061126, Mon Aug 21 2017 12:45:16 GMT-0400 (EDT), Ultimate_Frisbee, 60
, , , , , , , , , , , , right, 1, 0.9169999999999732, , , , , , , , , , , , frizFarRight.jpg, The force is home., right, , , , , frizFarRight.jpg, The force is home., right, 3, 3, 51, 9, 6061126, Mon Aug 21 2017 12:45:16 GMT-0400 (EDT), Ultimate_Frisbee, 60
, , , , , , , , , , , , right, 1, 0.5680000000000405, , , , , , , , , , , , frizNearRight.jpg, The force is home., right, , , , , frizNearRight.jpg, The force is home., right, 3, 4, 52, 11, 6061126, Mon Aug 21 2017 12:45:16 GMT-0400 (EDT), Ultimate_Frisbee, 60
, , , , , , , , , , , , right, 1, 0.8160000000000309, , , , , , , , , , , , frizFarLeft.jpg, The force is away., right, , , , , frizFarLeft.jpg, The force is away., right, 3, 5, 53, 12, 6061126, Mon Aug 21 2017 12:45:16 GMT-0400 (EDT), Ultimate_Frisbee, 60
, , , , , , , , , , , , left, 1, 1.0500000000000114, , , , , , , , , , , , frizFarLeft.jpg, The force is forehand., left, , , , , frizFarLeft.jpg, The force is forehand., left, 3, 6, 54, 0, 6061126, Mon Aug 21 2017 12:45:16 GMT-0400 (EDT), Ultimate_Frisbee, 60
, , , , , , , , , , , , right, 1, 0.9669999999999845, , , , , , , , , , , , frizFarLeft.jpg, The force is backhand., right, , , , , frizFarLeft.jpg, The force is backhand., right, 3, 7, 55, 4, 6061126, Mon Aug 21 2017 12:45:16 GMT-0400 (EDT), Ultimate_Frisbee, 60
, , , , , , , , , , , , right, 1, 0.7669999999999959, , , , , , , , , , , , frizNearLeft.jpg, The force is away., right, , , , , frizNearLeft.jpg, The force is away., right, 3, 8, 56, 14, 6061126, Mon Aug 21 2017 12:45:16 GMT-0400 (EDT), Ultimate_Frisbee, 60
, , , , , , , , , , , , right, 1, 0.8830000000000382, , , , , , , , , , , , frizNearLeft.jpg, The force is forehand., right, , , , , frizNearLeft.jpg, The force is forehand., right, 3, 9, 57, 2, 6061126, Mon Aug 21 2017 12:45:16 GMT-0400 (EDT), Ultimate_Frisbee, 60
, , , , , , , , , , , , left, 1, 1.1000000000000227, , , , , , , , , , , , frizFarRight.jpg, The force is away., left, , , , , frizFarRight.jpg, The force is away., left, 3, 10, 58, 13, 6061126, Mon Aug 21 2017 12:45:16 GMT-0400 (EDT), Ultimate_Frisbee, 60
, , , , , , , , , , , , left, 1, 0.5679999999999836, , , , , , , , , , , , frizNearLeft.jpg, The force is home., left, , , , , frizNearLeft.jpg, The force is home., left, 3, 11, 59, 10, 6061126, Mon Aug 21 2017 12:45:16 GMT-0400 (EDT), Ultimate_Frisbee, 60
, , , , , , , , , , , , left, 1, 1.8340000000000032, , , , , , , , , , , , frizNearLeft.jpg, The force is backhand., left, , , , , frizNearLeft.jpg, The force is backhand., left, 3, 12, 60, 6, 6061126, Mon Aug 21 2017 12:45:16 GMT-0400 (EDT), Ultimate_Frisbee, 60
, , , , , , , , , , , , left, 1, 0.7330000000000041, , , , , , , , , , , , frizNearRight.jpg, The force is away., left, , , , , frizNearRight.jpg, The force is away., left, 3, 13, 61, 15, 6061126, Mon Aug 21 2017 12:45:16 GMT-0400 (EDT), Ultimate_Frisbee, 60
, , , , , , , , , , , , left, 1, 0.6339999999999577, , , , , , , , , , , , frizFarLeft.jpg, The force is home., left, , , , , frizFarLeft.jpg, The force is home., left, 3, 14, 62, 8, 6061126, Mon Aug 21 2017 12:45:16 GMT-0400 (EDT), Ultimate_Frisbee, 60
, , , , , , , , , , , , left, 1, 1.5840000000000032, , , , , , , , , , , , frizNearRight.jpg, The force is backhand., left, , , , , frizNearRight.jpg, The force is backhand., left, 3, 15, 63, 7, 6061126, Mon Aug 21 2017 12:45:16 GMT-0400 (EDT), Ultimate_Frisbee, 60
