Continue.keys, Continue.rt, instructions_response.keys, instructions_response.rt, repeat_response.keys, repeat_response.rt, key_resp_3.keys, key_resp_3.rt, key_resp_5.keys, key_resp_5.rt, key_resp_2.keys, key_resp_2.rt, key_resp_4.keys, key_resp_4.rt, Trials_response.keys, Trials_response.corr, Trials_response.rt, Block_Continue.keys, Block_Continue.rt, Image, instructions_1_loop.thisRepN, instructions_1_loop.thisTrialN, instructions_1_loop.thisN, instructions_1_loop.thisIndex, instructions_2_repeat.thisRepN, instructions_2_repeat.thisTrialN, instructions_2_repeat.thisN, instructions_2_repeat.thisIndex, stim, prompt, answer, trials_2.thisRepN, trials_2.thisTrialN, trials_2.thisN, trials_2.thisIndex, stim, prompt, answer, trials.thisRepN, trials.thisTrialN, trials.thisN, trials.thisIndex, participant, date, expName, frameRate
space, 1.7660000000000018, space, 5.434000000000005, , , , , , , , , , , , , , , , Slide1.JPG, 0, 0, 0, 0, , , , , , , , , , , , , , , , , , , 67096388, Thu Oct 19 2017 20:27:46 GMT-0400 (Eastern Daylight Time), Ultimate_Frisbee, 60
, , space, 20.899, , , , , , , , , , , , , , , , Slide2.JPG, 0, 1, 1, 1, , , , , , , , , , , , , , , , , , , 67096388, Thu Oct 19 2017 20:27:46 GMT-0400 (Eastern Daylight Time), Ultimate_Frisbee, 60
, , space, 23.450000000000003, , , , , , , , , , , , , , , , Slide3.JPG, 0, 2, 2, 2, , , , , , , , , , , , , , , , , , , 67096388, Thu Oct 19 2017 20:27:46 GMT-0400 (Eastern Daylight Time), Ultimate_Frisbee, 60
, , space, 20.26599999999999, , , , , , , , , , , , , , , , Slide4.JPG, 0, 3, 3, 3, , , , , , , , , , , , , , , , , , , 67096388, Thu Oct 19 2017 20:27:46 GMT-0400 (Eastern Daylight Time), Ultimate_Frisbee, 60
, , space, 30.117999999999995, , , , , , , , , , , , , , , , Slide5.JPG, 0, 4, 4, 4, , , , , , , , , , , , , , , , , , , 67096388, Thu Oct 19 2017 20:27:46 GMT-0400 (Eastern Daylight Time), Ultimate_Frisbee, 60
, , space, 25.433999999999997, , , , , , , , , , , , , , , , Slide6.JPG, 0, 5, 5, 5, , , , , , , , , , , , , , , , , , , 67096388, Thu Oct 19 2017 20:27:46 GMT-0400 (Eastern Daylight Time), Ultimate_Frisbee, 60
, , space, 19.94999999999999, , , , , , , , , , , , , , , , Slide7.JPG, 0, 6, 6, 6, , , , , , , , , , , , , , , , , , , 67096388, Thu Oct 19 2017 20:27:46 GMT-0400 (Eastern Daylight Time), Ultimate_Frisbee, 60
, , space, 16.71599999999998, , , , , , , , , , , , , , , , Slide8.JPG, 0, 7, 7, 7, , , , , , , , , , , , , , , , , , , 67096388, Thu Oct 19 2017 20:27:46 GMT-0400 (Eastern Daylight Time), Ultimate_Frisbee, 60
, , space, 11.21799999999999, , , , , , , , , , , , , , , , Slide9.JPG, 0, 8, 8, 8, , , , , , , , , , , , , , , , , , , 67096388, Thu Oct 19 2017 20:27:46 GMT-0400 (Eastern Daylight Time), Ultimate_Frisbee, 60
, , space, 28.469000000000023, , , , , , , , , , , , , , , , Slide10.JPG, 0, 9, 9, 9, , , , , , , , , , , , , , , , , , , 67096388, Thu Oct 19 2017 20:27:46 GMT-0400 (Eastern Daylight Time), Ultimate_Frisbee, 60
, , space, 6.882999999999981, , , , , , , , , , , , , , , , Slide11.JPG, 0, 10, 10, 10, , , , , , , , , , , , , , , , , , , 67096388, Thu Oct 19 2017 20:27:46 GMT-0400 (Eastern Daylight Time), Ultimate_Frisbee, 60
, , space, 4.5, , , , , , , , , , , , , , , , Slide12.JPG, 0, 11, 11, 11, , , , , , , , , , , , , , , , , , , 67096388, Thu Oct 19 2017 20:27:46 GMT-0400 (Eastern Daylight Time), Ultimate_Frisbee, 60
, , space, 5.649000000000001, , , , , , , , , , , , , , , , Slide13.JPG, 0, 12, 12, 12, , , , , , , , , , , , , , , , , , , 67096388, Thu Oct 19 2017 20:27:46 GMT-0400 (Eastern Daylight Time), Ultimate_Frisbee, 60
, , space, 4.817999999999984, , , , , , , , , , , , , , , , Slide14.JPG, 0, 13, 13, 13, , , , , , , , , , , , , , , , , , , 67096388, Thu Oct 19 2017 20:27:46 GMT-0400 (Eastern Daylight Time), Ultimate_Frisbee, 60
, , , , 1, 1.2350000000000136, space, 3.048999999999978, space, 4.066000000000031, left, 1.4979999999999905, , , , , , , , , , , , , , , , , frizFarLeft.jpg, The force is forehand., left, 0, 0, 0, 0, frizFarLeft.jpg, The force is forehand., left, , , , , 67096388, Thu Oct 19 2017 20:27:46 GMT-0400 (Eastern Daylight Time), Ultimate_Frisbee, 60
, , , , , , , , , , right, 1.983000000000004, , , , , , , , , , , , , , , , , frizNearLeft.jpg, The force is away., right, 0, 1, 1, 1, frizNearLeft.jpg, The force is away., right, , , , , 67096388, Thu Oct 19 2017 20:27:46 GMT-0400 (Eastern Daylight Time), Ultimate_Frisbee, 60
, , , , , , , , , , right, 1.2650000000000432, , , , , , , , , , , , , , , , , frizFarRight.jpg, The force is backhand., right, 0, 2, 2, 2, frizFarRight.jpg, The force is backhand., right, , , , , 67096388, Thu Oct 19 2017 20:27:46 GMT-0400 (Eastern Daylight Time), Ultimate_Frisbee, 60
, , , , , , , , , , right, 2.3149999999999977, , , , , , , , , , , , , , , , , frizNearRight.jpg, The force is home., right, 0, 3, 3, 3, frizNearRight.jpg, The force is home., right, , , , , 67096388, Thu Oct 19 2017 20:27:46 GMT-0400 (Eastern Daylight Time), Ultimate_Frisbee, 60
, , , , , , , , , , left, 1.964999999999975, , , , , , , , , , , , , , , , , frizNearLeft.jpg, The force is backhand., left, 0, 4, 4, 4, frizNearLeft.jpg, The force is backhand., left, , , , , 67096388, Thu Oct 19 2017 20:27:46 GMT-0400 (Eastern Daylight Time), Ultimate_Frisbee, 60
, , , , , , , , , , right, 1.1659999999999968, , , , , , , , , , , , , , , , , frizNearRight.jpg, The force is home., right, 0, 5, 5, 5, frizNearRight.jpg, The force is home., right, , , , , 67096388, Thu Oct 19 2017 20:27:46 GMT-0400 (Eastern Daylight Time), Ultimate_Frisbee, 60
, , , , , , , , , , right, 1.8500000000000227, , , , , , , , , , , , , , , , , frizNearLeft.jpg, The force is away., right, 0, 6, 6, 6, frizNearLeft.jpg, The force is away., right, , , , , 67096388, Thu Oct 19 2017 20:27:46 GMT-0400 (Eastern Daylight Time), Ultimate_Frisbee, 60
, , , , , , , , , , left, 1.6339999999999577, , , , , , , , , , , , , , , , , frizFarLeft.jpg, The force is forehand., left, 0, 7, 7, 7, frizFarLeft.jpg, The force is forehand., left, , , , , 67096388, Thu Oct 19 2017 20:27:46 GMT-0400 (Eastern Daylight Time), Ultimate_Frisbee, 60
, , , , , , , , , , , , space, 1.5670000000000073, left, 1, 1.4010000000000105, , , , , , , , , , , , frizNearRight.jpg, The force is away., left, , , , , frizNearRight.jpg, The force is away., left, 0, 0, 0, 15, 67096388, Thu Oct 19 2017 20:27:46 GMT-0400 (Eastern Daylight Time), Ultimate_Frisbee, 60
, , , , , , , , , , , , , , left, 1, 1.2649999999999864, , , , , , , , , , , , frizNearLeft.jpg, The force is home., left, , , , , frizNearLeft.jpg, The force is home., left, 0, 1, 1, 10, 67096388, Thu Oct 19 2017 20:27:46 GMT-0400 (Eastern Daylight Time), Ultimate_Frisbee, 60
, , , , , , , , , , , , , , right, 1, 1.5, , , , , , , , , , , , frizNearLeft.jpg, The force is away., right, , , , , frizNearLeft.jpg, The force is away., right, 0, 2, 2, 14, 67096388, Thu Oct 19 2017 20:27:46 GMT-0400 (Eastern Daylight Time), Ultimate_Frisbee, 60
, , , , , , , , , , , , , , right, 1, 1.483000000000004, , , , , , , , , , , , frizFarRight.jpg, The force is home., right, , , , , frizFarRight.jpg, The force is home., right, 0, 3, 3, 9, 67096388, Thu Oct 19 2017 20:27:46 GMT-0400 (Eastern Daylight Time), Ultimate_Frisbee, 60
, , , , , , , , , , , , , , right, 1, 1.899000000000001, , , , , , , , , , , , frizNearRight.jpg, The force is forehand., right, , , , , frizNearRight.jpg, The force is forehand., right, 0, 4, 4, 3, 67096388, Thu Oct 19 2017 20:27:46 GMT-0400 (Eastern Daylight Time), Ultimate_Frisbee, 60
, , , , , , , , , , , , , , left, 1, 1.3840000000000146, , , , , , , , , , , , frizFarLeft.jpg, The force is forehand., left, , , , , frizFarLeft.jpg, The force is forehand., left, 0, 5, 5, 0, 67096388, Thu Oct 19 2017 20:27:46 GMT-0400 (Eastern Daylight Time), Ultimate_Frisbee, 60
, , , , , , , , , , , , , , left, 1, 1.8489999999999895, , , , , , , , , , , , frizNearRight.jpg, The force is backhand., left, , , , , frizNearRight.jpg, The force is backhand., left, 0, 6, 6, 7, 67096388, Thu Oct 19 2017 20:27:46 GMT-0400 (Eastern Daylight Time), Ultimate_Frisbee, 60
, , , , , , , , , , , , , , left, 1, 1.5849999999999795, , , , , , , , , , , , frizFarRight.jpg, The force is forehand., left, , , , , frizFarRight.jpg, The force is forehand., left, 0, 7, 7, 1, 67096388, Thu Oct 19 2017 20:27:46 GMT-0400 (Eastern Daylight Time), Ultimate_Frisbee, 60
, , , , , , , , , , , , , , left, 1, 2.383000000000038, , , , , , , , , , , , frizNearLeft.jpg, The force is backhand., left, , , , , frizNearLeft.jpg, The force is backhand., left, 0, 8, 8, 6, 67096388, Thu Oct 19 2017 20:27:46 GMT-0400 (Eastern Daylight Time), Ultimate_Frisbee, 60
, , , , , , , , , , , , , , right, 1, 1.2839999999999918, , , , , , , , , , , , frizNearLeft.jpg, The force is forehand., right, , , , , frizNearLeft.jpg, The force is forehand., right, 0, 9, 9, 2, 67096388, Thu Oct 19 2017 20:27:46 GMT-0400 (Eastern Daylight Time), Ultimate_Frisbee, 60
, , , , , , , , , , , , , , right, 1, 1.850999999999999, , , , , , , , , , , , frizFarLeft.jpg, The force is backhand., right, , , , , frizFarLeft.jpg, The force is backhand., right, 0, 10, 10, 4, 67096388, Thu Oct 19 2017 20:27:46 GMT-0400 (Eastern Daylight Time), Ultimate_Frisbee, 60
, , , , , , , , , , , , , , right, 1, 1.1650000000000205, , , , , , , , , , , , frizNearRight.jpg, The force is home., right, , , , , frizNearRight.jpg, The force is home., right, 0, 11, 11, 11, 67096388, Thu Oct 19 2017 20:27:46 GMT-0400 (Eastern Daylight Time), Ultimate_Frisbee, 60
, , , , , , , , , , , , , , left, 0, 1.2829999999999586, , , , , , , , , , , , frizFarRight.jpg, The force is backhand., right, , , , , frizFarRight.jpg, The force is backhand., right, 0, 12, 12, 5, 67096388, Thu Oct 19 2017 20:27:46 GMT-0400 (Eastern Daylight Time), Ultimate_Frisbee, 60
, , , , , , , , , , , , , , right, 1, 1.7350000000000136, , , , , , , , , , , , frizFarLeft.jpg, The force is away., right, , , , , frizFarLeft.jpg, The force is away., right, 0, 13, 13, 12, 67096388, Thu Oct 19 2017 20:27:46 GMT-0400 (Eastern Daylight Time), Ultimate_Frisbee, 60
, , , , , , , , , , , , , , left, 1, 1.266999999999996, , , , , , , , , , , , frizFarLeft.jpg, The force is home., left, , , , , frizFarLeft.jpg, The force is home., left, 0, 14, 14, 8, 67096388, Thu Oct 19 2017 20:27:46 GMT-0400 (Eastern Daylight Time), Ultimate_Frisbee, 60
, , , , , , , , , , , , , , left, 1, 1.516999999999996, , , , , , , , , , , , frizFarRight.jpg, The force is away., left, , , , , frizFarRight.jpg, The force is away., left, 0, 15, 15, 13, 67096388, Thu Oct 19 2017 20:27:46 GMT-0400 (Eastern Daylight Time), Ultimate_Frisbee, 60
, , , , , , , , , , , , , , left, 1, 2.283999999999992, , , , , , , , , , , , frizNearRight.jpg, The force is backhand., left, , , , , frizNearRight.jpg, The force is backhand., left, 1, 0, 16, 7, 67096388, Thu Oct 19 2017 20:27:46 GMT-0400 (Eastern Daylight Time), Ultimate_Frisbee, 60
, , , , , , , , , , , , , , left, 1, 1.4499999999999886, , , , , , , , , , , , frizFarLeft.jpg, The force is forehand., left, , , , , frizFarLeft.jpg, The force is forehand., left, 1, 1, 17, 0, 67096388, Thu Oct 19 2017 20:27:46 GMT-0400 (Eastern Daylight Time), Ultimate_Frisbee, 60
, , , , , , , , , , , , , , left, 1, 1.9320000000000164, , , , , , , , , , , , frizNearLeft.jpg, The force is backhand., left, , , , , frizNearLeft.jpg, The force is backhand., left, 1, 2, 18, 6, 67096388, Thu Oct 19 2017 20:27:46 GMT-0400 (Eastern Daylight Time), Ultimate_Frisbee, 60
, , , , , , , , , , , , , , right, 1, 2.8500000000000227, , , , , , , , , , , , frizNearLeft.jpg, The force is forehand., right, , , , , frizNearLeft.jpg, The force is forehand., right, 1, 3, 19, 2, 67096388, Thu Oct 19 2017 20:27:46 GMT-0400 (Eastern Daylight Time), Ultimate_Frisbee, 60
, , , , , , , , , , , , , , left, 1, 1.2180000000000177, , , , , , , , , , , , frizNearRight.jpg, The force is away., left, , , , , frizNearRight.jpg, The force is away., left, 1, 4, 20, 15, 67096388, Thu Oct 19 2017 20:27:46 GMT-0400 (Eastern Daylight Time), Ultimate_Frisbee, 60
, , , , , , , , , , , , , , right, 1, 1.233000000000004, , , , , , , , , , , , frizFarRight.jpg, The force is home., right, , , , , frizFarRight.jpg, The force is home., right, 1, 5, 21, 9, 67096388, Thu Oct 19 2017 20:27:46 GMT-0400 (Eastern Daylight Time), Ultimate_Frisbee, 60
, , , , , , , , , , , , , , right, 1, 1.5670000000000073, , , , , , , , , , , , frizNearLeft.jpg, The force is away., right, , , , , frizNearLeft.jpg, The force is away., right, 1, 6, 22, 14, 67096388, Thu Oct 19 2017 20:27:46 GMT-0400 (Eastern Daylight Time), Ultimate_Frisbee, 60
, , , , , , , , , , , , , , left, 1, 1.1000000000000227, , , , , , , , , , , , frizFarRight.jpg, The force is away., left, , , , , frizFarRight.jpg, The force is away., left, 1, 7, 23, 13, 67096388, Thu Oct 19 2017 20:27:46 GMT-0400 (Eastern Daylight Time), Ultimate_Frisbee, 60
, , , , , , , , , , , , , , right, 1, 1.099999999999966, , , , , , , , , , , , frizNearRight.jpg, The force is home., right, , , , , frizNearRight.jpg, The force is home., right, 1, 8, 24, 11, 67096388, Thu Oct 19 2017 20:27:46 GMT-0400 (Eastern Daylight Time), Ultimate_Frisbee, 60
, , , , , , , , , , , , , , left, 1, 1.5499999999999545, , , , , , , , , , , , frizFarLeft.jpg, The force is home., left, , , , , frizFarLeft.jpg, The force is home., left, 1, 9, 25, 8, 67096388, Thu Oct 19 2017 20:27:46 GMT-0400 (Eastern Daylight Time), Ultimate_Frisbee, 60
, , , , , , , , , , , , , , right, 1, 1.785000000000025, , , , , , , , , , , , frizNearRight.jpg, The force is forehand., right, , , , , frizNearRight.jpg, The force is forehand., right, 1, 10, 26, 3, 67096388, Thu Oct 19 2017 20:27:46 GMT-0400 (Eastern Daylight Time), Ultimate_Frisbee, 60
, , , , , , , , , , , , , , left, 1, 1.25, , , , , , , , , , , , frizNearLeft.jpg, The force is home., left, , , , , frizNearLeft.jpg, The force is home., left, 1, 11, 27, 10, 67096388, Thu Oct 19 2017 20:27:46 GMT-0400 (Eastern Daylight Time), Ultimate_Frisbee, 60
, , , , , , , , , , , , , , right, 1, 1.617999999999995, , , , , , , , , , , , frizFarLeft.jpg, The force is away., right, , , , , frizFarLeft.jpg, The force is away., right, 1, 12, 28, 12, 67096388, Thu Oct 19 2017 20:27:46 GMT-0400 (Eastern Daylight Time), Ultimate_Frisbee, 60
, , , , , , , , , , , , , , right, 1, 1.9329999999999927, , , , , , , , , , , , frizFarRight.jpg, The force is backhand., right, , , , , frizFarRight.jpg, The force is backhand., right, 1, 13, 29, 5, 67096388, Thu Oct 19 2017 20:27:46 GMT-0400 (Eastern Daylight Time), Ultimate_Frisbee, 60
, , , , , , , , , , , , , , left, 1, 1.0179999999999723, , , , , , , , , , , , frizFarRight.jpg, The force is forehand., left, , , , , frizFarRight.jpg, The force is forehand., left, 1, 14, 30, 1, 67096388, Thu Oct 19 2017 20:27:46 GMT-0400 (Eastern Daylight Time), Ultimate_Frisbee, 60
, , , , , , , , , , , , , , right, 1, 1.4670000000000414, , , , , , , , , , , , frizFarLeft.jpg, The force is backhand., right, , , , , frizFarLeft.jpg, The force is backhand., right, 1, 15, 31, 4, 67096388, Thu Oct 19 2017 20:27:46 GMT-0400 (Eastern Daylight Time), Ultimate_Frisbee, 60
, , , , , , , , , , , , , , right, 1, 1.268000000000029, , , , , , , , , , , , frizFarRight.jpg, The force is home., right, , , , , frizFarRight.jpg, The force is home., right, 2, 0, 32, 9, 67096388, Thu Oct 19 2017 20:27:46 GMT-0400 (Eastern Daylight Time), Ultimate_Frisbee, 60
, , , , , , , , , , , , , , left, 1, 1.6340000000000146, , , , , , , , , , , , frizFarRight.jpg, The force is forehand., left, , , , , frizFarRight.jpg, The force is forehand., left, 2, 1, 33, 1, 67096388, Thu Oct 19 2017 20:27:46 GMT-0400 (Eastern Daylight Time), Ultimate_Frisbee, 60
, , , , , , , , , , , , , , left, 1, 2.184000000000026, , , , , , , , , , , , frizNearLeft.jpg, The force is backhand., left, , , , , frizNearLeft.jpg, The force is backhand., left, 2, 2, 34, 6, 67096388, Thu Oct 19 2017 20:27:46 GMT-0400 (Eastern Daylight Time), Ultimate_Frisbee, 60
, , , , , , , , , , , , , , right, 1, 1.4490000000000123, , , , , , , , , , , , frizNearRight.jpg, The force is home., right, , , , , frizNearRight.jpg, The force is home., right, 2, 3, 35, 11, 67096388, Thu Oct 19 2017 20:27:46 GMT-0400 (Eastern Daylight Time), Ultimate_Frisbee, 60
, , , , , , , , , , , , , , left, 1, 1.25, , , , , , , , , , , , frizNearRight.jpg, The force is away., left, , , , , frizNearRight.jpg, The force is away., left, 2, 4, 36, 15, 67096388, Thu Oct 19 2017 20:27:46 GMT-0400 (Eastern Daylight Time), Ultimate_Frisbee, 60
, , , , , , , , , , , , , , left, 1, 1.2340000000000373, , , , , , , , , , , , frizNearLeft.jpg, The force is home., left, , , , , frizNearLeft.jpg, The force is home., left, 2, 5, 37, 10, 67096388, Thu Oct 19 2017 20:27:46 GMT-0400 (Eastern Daylight Time), Ultimate_Frisbee, 60
, , , , , , , , , , , , , , right, 1, 1.183999999999969, , , , , , , , , , , , frizNearRight.jpg, The force is forehand., right, , , , , frizNearRight.jpg, The force is forehand., right, 2, 6, 38, 3, 67096388, Thu Oct 19 2017 20:27:46 GMT-0400 (Eastern Daylight Time), Ultimate_Frisbee, 60
, , , , , , , , , , , , , , right, 1, 1.2510000000000332, , , , , , , , , , , , frizNearLeft.jpg, The force is forehand., right, , , , , frizNearLeft.jpg, The force is forehand., right, 2, 7, 39, 2, 67096388, Thu Oct 19 2017 20:27:46 GMT-0400 (Eastern Daylight Time), Ultimate_Frisbee, 60
, , , , , , , , , , , , , , left, 1, 1.6510000000000673, , , , , , , , , , , , frizFarLeft.jpg, The force is home., left, , , , , frizFarLeft.jpg, The force is home., left, 2, 8, 40, 8, 67096388, Thu Oct 19 2017 20:27:46 GMT-0400 (Eastern Daylight Time), Ultimate_Frisbee, 60
, , , , , , , , , , , , , , left, 1, 1.1510000000000673, , , , , , , , , , , , frizFarLeft.jpg, The force is forehand., left, , , , , frizFarLeft.jpg, The force is forehand., left, 2, 9, 41, 0, 67096388, Thu Oct 19 2017 20:27:46 GMT-0400 (Eastern Daylight Time), Ultimate_Frisbee, 60
, , , , , , , , , , , , , , right, 1, 1.0170000000000528, , , , , , , , , , , , frizFarRight.jpg, The force is backhand., right, , , , , frizFarRight.jpg, The force is backhand., right, 2, 10, 42, 5, 67096388, Thu Oct 19 2017 20:27:46 GMT-0400 (Eastern Daylight Time), Ultimate_Frisbee, 60
, , , , , , , , , , , , , , right, 1, 1.650000000000091, , , , , , , , , , , , frizFarLeft.jpg, The force is backhand., right, , , , , frizFarLeft.jpg, The force is backhand., right, 2, 11, 43, 4, 67096388, Thu Oct 19 2017 20:27:46 GMT-0400 (Eastern Daylight Time), Ultimate_Frisbee, 60
, , , , , , , , , , , , , , left, 1, 1.6829999999999927, , , , , , , , , , , , frizNearRight.jpg, The force is backhand., left, , , , , frizNearRight.jpg, The force is backhand., left, 2, 12, 44, 7, 67096388, Thu Oct 19 2017 20:27:46 GMT-0400 (Eastern Daylight Time), Ultimate_Frisbee, 60
, , , , , , , , , , , , , , left, 1, 1.1340000000000146, , , , , , , , , , , , frizFarRight.jpg, The force is away., left, , , , , frizFarRight.jpg, The force is away., left, 2, 13, 45, 13, 67096388, Thu Oct 19 2017 20:27:46 GMT-0400 (Eastern Daylight Time), Ultimate_Frisbee, 60
, , , , , , , , , , , , , , right, 1, 1.4149999999999636, , , , , , , , , , , , frizFarLeft.jpg, The force is away., right, , , , , frizFarLeft.jpg, The force is away., right, 2, 14, 46, 12, 67096388, Thu Oct 19 2017 20:27:46 GMT-0400 (Eastern Daylight Time), Ultimate_Frisbee, 60
, , , , , , , , , , , , , , right, 1, 1.0190000000000055, , , , , , , , , , , , frizNearLeft.jpg, The force is away., right, , , , , frizNearLeft.jpg, The force is away., right, 2, 15, 47, 14, 67096388, Thu Oct 19 2017 20:27:46 GMT-0400 (Eastern Daylight Time), Ultimate_Frisbee, 60
, , , , , , , , , , , , , , right, 1, 1.5030000000000427, , , , , , , , , , , , frizFarRight.jpg, The force is backhand., right, , , , , frizFarRight.jpg, The force is backhand., right, 3, 0, 48, 5, 67096388, Thu Oct 19 2017 20:27:46 GMT-0400 (Eastern Daylight Time), Ultimate_Frisbee, 60
, , , , , , , , , , , , , , left, 1, 1.233000000000061, , , , , , , , , , , , frizFarRight.jpg, The force is forehand., left, , , , , frizFarRight.jpg, The force is forehand., left, 3, 1, 49, 1, 67096388, Thu Oct 19 2017 20:27:46 GMT-0400 (Eastern Daylight Time), Ultimate_Frisbee, 60
, , , , , , , , , , , , , , right, 1, 1.1330000000000382, , , , , , , , , , , , frizFarLeft.jpg, The force is backhand., right, , , , , frizFarLeft.jpg, The force is backhand., right, 3, 2, 50, 4, 67096388, Thu Oct 19 2017 20:27:46 GMT-0400 (Eastern Daylight Time), Ultimate_Frisbee, 60
, , , , , , , , , , , , , , left, 1, 1.2010000000000218, , , , , , , , , , , , frizFarRight.jpg, The force is away., left, , , , , frizFarRight.jpg, The force is away., left, 3, 3, 51, 13, 67096388, Thu Oct 19 2017 20:27:46 GMT-0400 (Eastern Daylight Time), Ultimate_Frisbee, 60
, , , , , , , , , , , , , , left, 1, 1.233000000000061, , , , , , , , , , , , frizNearLeft.jpg, The force is backhand., left, , , , , frizNearLeft.jpg, The force is backhand., left, 3, 4, 52, 6, 67096388, Thu Oct 19 2017 20:27:46 GMT-0400 (Eastern Daylight Time), Ultimate_Frisbee, 60
, , , , , , , , , , , , , , left, 1, 0.9500000000000455, , , , , , , , , , , , frizNearLeft.jpg, The force is home., left, , , , , frizNearLeft.jpg, The force is home., left, 3, 5, 53, 10, 67096388, Thu Oct 19 2017 20:27:46 GMT-0400 (Eastern Daylight Time), Ultimate_Frisbee, 60
, , , , , , , , , , , , , , right, 1, 1.316000000000031, , , , , , , , , , , , frizNearLeft.jpg, The force is forehand., right, , , , , frizNearLeft.jpg, The force is forehand., right, 3, 6, 54, 2, 67096388, Thu Oct 19 2017 20:27:46 GMT-0400 (Eastern Daylight Time), Ultimate_Frisbee, 60
, , , , , , , , , , , , , , left, 1, 1.2490000000000236, , , , , , , , , , , , frizNearRight.jpg, The force is backhand., left, , , , , frizNearRight.jpg, The force is backhand., left, 3, 7, 55, 7, 67096388, Thu Oct 19 2017 20:27:46 GMT-0400 (Eastern Daylight Time), Ultimate_Frisbee, 60
, , , , , , , , , , , , , , left, 1, 1.1309999999999718, , , , , , , , , , , , frizFarLeft.jpg, The force is forehand., left, , , , , frizFarLeft.jpg, The force is forehand., left, 3, 8, 56, 0, 67096388, Thu Oct 19 2017 20:27:46 GMT-0400 (Eastern Daylight Time), Ultimate_Frisbee, 60
, , , , , , , , , , , , , , left, 1, 1.25100000000009, , , , , , , , , , , , frizNearRight.jpg, The force is away., left, , , , , frizNearRight.jpg, The force is away., left, 3, 9, 57, 15, 67096388, Thu Oct 19 2017 20:27:46 GMT-0400 (Eastern Daylight Time), Ultimate_Frisbee, 60
, , , , , , , , , , , , , , right, 1, 1.4669999999999845, , , , , , , , , , , , frizNearRight.jpg, The force is forehand., right, , , , , frizNearRight.jpg, The force is forehand., right, 3, 10, 58, 3, 67096388, Thu Oct 19 2017 20:27:46 GMT-0400 (Eastern Daylight Time), Ultimate_Frisbee, 60
, , , , , , , , , , , , , , right, 1, 2.1000000000000227, , , , , , , , , , , , frizNearRight.jpg, The force is home., right, , , , , frizNearRight.jpg, The force is home., right, 3, 11, 59, 11, 67096388, Thu Oct 19 2017 20:27:46 GMT-0400 (Eastern Daylight Time), Ultimate_Frisbee, 60
, , , , , , , , , , , , , , left, 1, 0.9329999999999927, , , , , , , , , , , , frizFarLeft.jpg, The force is home., left, , , , , frizFarLeft.jpg, The force is home., left, 3, 12, 60, 8, 67096388, Thu Oct 19 2017 20:27:46 GMT-0400 (Eastern Daylight Time), Ultimate_Frisbee, 60
, , , , , , , , , , , , , , right, 1, 0.9340000000000828, , , , , , , , , , , , frizFarRight.jpg, The force is home., right, , , , , frizFarRight.jpg, The force is home., right, 3, 13, 61, 9, 67096388, Thu Oct 19 2017 20:27:46 GMT-0400 (Eastern Daylight Time), Ultimate_Frisbee, 60
, , , , , , , , , , , , , , right, 1, 1, , , , , , , , , , , , frizFarLeft.jpg, The force is away., right, , , , , frizFarLeft.jpg, The force is away., right, 3, 14, 62, 12, 67096388, Thu Oct 19 2017 20:27:46 GMT-0400 (Eastern Daylight Time), Ultimate_Frisbee, 60
, , , , , , , , , , , , , , right, 1, 1.4840000000000373, , , , , , , , , , , , frizNearLeft.jpg, The force is away., right, , , , , frizNearLeft.jpg, The force is away., right, 3, 15, 63, 14, 67096388, Thu Oct 19 2017 20:27:46 GMT-0400 (Eastern Daylight Time), Ultimate_Frisbee, 60
