Continue.keys, Continue.rt, instructions_response.keys, instructions_response.rt, repeat_response.keys, repeat_response.rt, key_resp_5.keys, key_resp_5.rt, key_resp_2.keys, key_resp_2.rt, key_resp_4.keys, key_resp_4.rt, Trials_response.keys, Trials_response.corr, Trials_response.rt, Block_Continue.keys, Block_Continue.rt, Image, instructions_1_loop.thisRepN, instructions_1_loop.thisTrialN, instructions_1_loop.thisN, instructions_1_loop.thisIndex, instructions_2_repeat.thisRepN, instructions_2_repeat.thisTrialN, instructions_2_repeat.thisN, instructions_2_repeat.thisIndex, stim, prompt, answer, trials_2.thisRepN, trials_2.thisTrialN, trials_2.thisN, trials_2.thisIndex, stim, prompt, answer, trials.thisRepN, trials.thisTrialN, trials.thisN, trials.thisIndex, participant, date, expName, frameRate
space, 0.8649999999999984, space, 4.505999999999997, , , , , , , , , , , , , , Slide1.JPG, 0, 0, 0, 0, , , , , , , , , , , , , , , , , , , 92676929, Sun Aug 20 2017 10:48:10 GMT-0400 (EDT), Ultimate_Frisbee, 60
, , space, 16.678, , , , , , , , , , , , , , Slide2.JPG, 0, 1, 1, 1, , , , , , , , , , , , , , , , , , , 92676929, Sun Aug 20 2017 10:48:10 GMT-0400 (EDT), Ultimate_Frisbee, 60
, , space, 14.028000000000006, , , , , , , , , , , , , , Slide3.JPG, 0, 2, 2, 2, , , , , , , , , , , , , , , , , , , 92676929, Sun Aug 20 2017 10:48:10 GMT-0400 (EDT), Ultimate_Frisbee, 60
, , space, 2.378, , , , , , , , , , , , , , Slide4.JPG, 0, 3, 3, 3, , , , , , , , , , , , , , , , , , , 92676929, Sun Aug 20 2017 10:48:10 GMT-0400 (EDT), Ultimate_Frisbee, 60
, , space, 17.941000000000003, , , , , , , , , , , , , , Slide5.JPG, 0, 4, 4, 4, , , , , , , , , , , , , , , , , , , 92676929, Sun Aug 20 2017 10:48:10 GMT-0400 (EDT), Ultimate_Frisbee, 60
, , space, 13.468000000000004, , , , , , , , , , , , , , Slide6.JPG, 0, 5, 5, 5, , , , , , , , , , , , , , , , , , , 92676929, Sun Aug 20 2017 10:48:10 GMT-0400 (EDT), Ultimate_Frisbee, 60
, , space, 16.911, , , , , , , , , , , , , , Slide7.JPG, 0, 6, 6, 6, , , , , , , , , , , , , , , , , , , 92676929, Sun Aug 20 2017 10:48:10 GMT-0400 (EDT), Ultimate_Frisbee, 60
, , space, 10.325999999999993, , , , , , , , , , , , , , Slide8.JPG, 0, 7, 7, 7, , , , , , , , , , , , , , , , , , , 92676929, Sun Aug 20 2017 10:48:10 GMT-0400 (EDT), Ultimate_Frisbee, 60
, , space, 4.007000000000005, , , , , , , , , , , , , , Slide9.JPG, 0, 8, 8, 8, , , , , , , , , , , , , , , , , , , 92676929, Sun Aug 20 2017 10:48:10 GMT-0400 (EDT), Ultimate_Frisbee, 60
, , space, 6.418000000000006, , , , , , , , , , , , , , Slide10.JPG, 0, 9, 9, 9, , , , , , , , , , , , , , , , , , , 92676929, Sun Aug 20 2017 10:48:10 GMT-0400 (EDT), Ultimate_Frisbee, 60
, , space, 3.125, , , , , , , , , , , , , , Slide11.JPG, 0, 10, 10, 10, , , , , , , , , , , , , , , , , , , 92676929, Sun Aug 20 2017 10:48:10 GMT-0400 (EDT), Ultimate_Frisbee, 60
, , space, 2.3770000000000095, , , , , , , , , , , , , , Slide12.JPG, 0, 11, 11, 11, , , , , , , , , , , , , , , , , , , 92676929, Sun Aug 20 2017 10:48:10 GMT-0400 (EDT), Ultimate_Frisbee, 60
, , space, 1.3629999999999995, , , , , , , , , , , , , , Slide13.JPG, 0, 12, 12, 12, , , , , , , , , , , , , , , , , , , 92676929, Sun Aug 20 2017 10:48:10 GMT-0400 (EDT), Ultimate_Frisbee, 60
, , space, 0.03299999999998704, , , , , , , , , , , , , , Slide14.JPG, 0, 13, 13, 13, , , , , , , , , , , , , , , , , , , 92676929, Sun Aug 20 2017 10:48:10 GMT-0400 (EDT), Ultimate_Frisbee, 60
, , , , 0, 0.9809999999999945, space, 6.036000000000001, left, 4.006, , , , , , , , , , , , , , , , , frizFarLeft.jpg, The force is forehand., left, 0, 0, 0, 0, frizFarLeft.jpg, The force is forehand., left, , , , , 92676929, Sun Aug 20 2017 10:48:10 GMT-0400 (EDT), Ultimate_Frisbee, 60
, , , , , , , , right, 1.2949999999999875, , , , , , , , , , , , , , , , , frizNearLeft.jpg, The force is away., right, 0, 1, 1, 1, frizNearLeft.jpg, The force is away., right, , , , , 92676929, Sun Aug 20 2017 10:48:10 GMT-0400 (EDT), Ultimate_Frisbee, 60
, , , , , , , , right, 2.959000000000003, , , , , , , , , , , , , , , , , frizFarRight.jpg, The force is backhand., right, 0, 2, 2, 2, frizFarRight.jpg, The force is backhand., right, , , , , 92676929, Sun Aug 20 2017 10:48:10 GMT-0400 (EDT), Ultimate_Frisbee, 60
, , , , , , , , right, 0.7800000000000011, , , , , , , , , , , , , , , , , frizNearRight.jpg, The force is home., right, 0, 3, 3, 3, frizNearRight.jpg, The force is home., right, , , , , 92676929, Sun Aug 20 2017 10:48:10 GMT-0400 (EDT), Ultimate_Frisbee, 60
, , , , , , , , left, 1.429000000000002, , , , , , , , , , , , , , , , , frizNearLeft.jpg, The force is backhand., left, 0, 4, 4, 4, frizNearLeft.jpg, The force is backhand., left, , , , , 92676929, Sun Aug 20 2017 10:48:10 GMT-0400 (EDT), Ultimate_Frisbee, 60
, , , , , , , , right, 0.9799999999999898, , , , , , , , , , , , , , , , , frizNearRight.jpg, The force is home., right, 0, 5, 5, 5, frizNearRight.jpg, The force is home., right, , , , , 92676929, Sun Aug 20 2017 10:48:10 GMT-0400 (EDT), Ultimate_Frisbee, 60
, , , , , , , , right, 1.429000000000002, , , , , , , , , , , , , , , , , frizNearLeft.jpg, The force is away., right, 0, 6, 6, 6, frizNearLeft.jpg, The force is away., right, , , , , 92676929, Sun Aug 20 2017 10:48:10 GMT-0400 (EDT), Ultimate_Frisbee, 60
, , , , , , , , left, 1.2450000000000045, , , , , , , , , , , , , , , , , frizFarLeft.jpg, The force is forehand., left, 0, 7, 7, 7, frizFarLeft.jpg, The force is forehand., left, , , , , 92676929, Sun Aug 20 2017 10:48:10 GMT-0400 (EDT), Ultimate_Frisbee, 60
, , , , , , , , , , space, 29.180000000000007, left, 1, 1.1970000000000027, , , , , , , , , , , , frizFarLeft.jpg, The force is forehand., left, , , , , frizFarLeft.jpg, The force is forehand., left, 0, 0, 0, 0, 92676929, Sun Aug 20 2017 10:48:10 GMT-0400 (EDT), Ultimate_Frisbee, 60
, , , , , , , , , , , , right, 1, 0.4989999999999952, , , , , , , , , , , , frizFarLeft.jpg, The force is backhand., right, , , , , frizFarLeft.jpg, The force is backhand., right, 0, 1, 1, 4, 92676929, Sun Aug 20 2017 10:48:10 GMT-0400 (EDT), Ultimate_Frisbee, 60
, , , , , , , , , , , , right, 1, 1.7630000000000337, , , , , , , , , , , , frizFarRight.jpg, The force is backhand., right, , , , , frizFarRight.jpg, The force is backhand., right, 0, 2, 2, 5, 92676929, Sun Aug 20 2017 10:48:10 GMT-0400 (EDT), Ultimate_Frisbee, 60
, , , , , , , , , , , , left, 1, 1.1140000000000327, , , , , , , , , , , , frizNearRight.jpg, The force is backhand., left, , , , , frizNearRight.jpg, The force is backhand., left, 0, 3, 3, 7, 92676929, Sun Aug 20 2017 10:48:10 GMT-0400 (EDT), Ultimate_Frisbee, 60
, , , , , , , , , , , , right, 0, 1.01400000000001, , , , , , , , , , , , frizNearRight.jpg, The force is away., left, , , , , frizNearRight.jpg, The force is away., left, 0, 4, 4, 15, 92676929, Sun Aug 20 2017 10:48:10 GMT-0400 (EDT), Ultimate_Frisbee, 60
, , , , , , , , , , , , right, 1, 1.3629999999999995, , , , , , , , , , , , frizNearRight.jpg, The force is forehand., right, , , , , frizNearRight.jpg, The force is forehand., right, 0, 5, 5, 3, 92676929, Sun Aug 20 2017 10:48:10 GMT-0400 (EDT), Ultimate_Frisbee, 60
, , , , , , , , , , , , right, 1, 1.1959999999999695, , , , , , , , , , , , frizNearLeft.jpg, The force is forehand., right, , , , , frizNearLeft.jpg, The force is forehand., right, 0, 6, 6, 2, 92676929, Sun Aug 20 2017 10:48:10 GMT-0400 (EDT), Ultimate_Frisbee, 60
, , , , , , , , , , , , right, 1, 1.2469999999999573, , , , , , , , , , , , frizNearLeft.jpg, The force is away., right, , , , , frizNearLeft.jpg, The force is away., right, 0, 7, 7, 14, 92676929, Sun Aug 20 2017 10:48:10 GMT-0400 (EDT), Ultimate_Frisbee, 60
, , , , , , , , , , , , right, 1, 1.2139999999999986, , , , , , , , , , , , frizNearRight.jpg, The force is home., right, , , , , frizNearRight.jpg, The force is home., right, 0, 8, 8, 11, 92676929, Sun Aug 20 2017 10:48:10 GMT-0400 (EDT), Ultimate_Frisbee, 60
, , , , , , , , , , , , left, 1, 1.0130000000000337, , , , , , , , , , , , frizFarLeft.jpg, The force is home., left, , , , , frizFarLeft.jpg, The force is home., left, 0, 9, 9, 8, 92676929, Sun Aug 20 2017 10:48:10 GMT-0400 (EDT), Ultimate_Frisbee, 60
, , , , , , , , , , , , left, 1, 1.9279999999999973, , , , , , , , , , , , frizFarRight.jpg, The force is forehand., left, , , , , frizFarRight.jpg, The force is forehand., left, 0, 10, 10, 1, 92676929, Sun Aug 20 2017 10:48:10 GMT-0400 (EDT), Ultimate_Frisbee, 60
, , , , , , , , , , , , left, 1, 1.5470000000000255, , , , , , , , , , , , frizNearLeft.jpg, The force is backhand., left, , , , , frizNearLeft.jpg, The force is backhand., left, 0, 11, 11, 6, 92676929, Sun Aug 20 2017 10:48:10 GMT-0400 (EDT), Ultimate_Frisbee, 60
, , , , , , , , , , , , left, 1, 1.2789999999999964, , , , , , , , , , , , frizNearLeft.jpg, The force is home., left, , , , , frizNearLeft.jpg, The force is home., left, 0, 12, 12, 10, 92676929, Sun Aug 20 2017 10:48:10 GMT-0400 (EDT), Ultimate_Frisbee, 60
, , , , , , , , , , , , right, 1, 0.8480000000000132, , , , , , , , , , , , frizFarLeft.jpg, The force is away., right, , , , , frizFarLeft.jpg, The force is away., right, 0, 13, 13, 12, 92676929, Sun Aug 20 2017 10:48:10 GMT-0400 (EDT), Ultimate_Frisbee, 60
, , , , , , , , , , , , left, 1, 1.26400000000001, , , , , , , , , , , , frizFarRight.jpg, The force is away., left, , , , , frizFarRight.jpg, The force is away., left, 0, 14, 14, 13, 92676929, Sun Aug 20 2017 10:48:10 GMT-0400 (EDT), Ultimate_Frisbee, 60
, , , , , , , , , , , , right, 1, 0.8980000000000246, , , , , , , , , , , , frizFarRight.jpg, The force is home., right, , , , , frizFarRight.jpg, The force is home., right, 0, 15, 15, 9, 92676929, Sun Aug 20 2017 10:48:10 GMT-0400 (EDT), Ultimate_Frisbee, 60
, , , , , , , , , , , , left, 1, 0.7980000000000018, , , , , , , , , , , , frizNearRight.jpg, The force is away., left, , , , , frizNearRight.jpg, The force is away., left, 1, 0, 16, 15, 92676929, Sun Aug 20 2017 10:48:10 GMT-0400 (EDT), Ultimate_Frisbee, 60
, , , , , , , , , , , , left, 1, 1.4300000000000068, , , , , , , , , , , , frizFarLeft.jpg, The force is forehand., left, , , , , frizFarLeft.jpg, The force is forehand., left, 1, 1, 17, 0, 92676929, Sun Aug 20 2017 10:48:10 GMT-0400 (EDT), Ultimate_Frisbee, 60
, , , , , , , , , , , , left, 1, 1.1970000000000027, , , , , , , , , , , , frizFarRight.jpg, The force is away., left, , , , , frizFarRight.jpg, The force is away., left, 1, 2, 18, 13, 92676929, Sun Aug 20 2017 10:48:10 GMT-0400 (EDT), Ultimate_Frisbee, 60
, , , , , , , , , , , , right, 1, 1.2309999999999945, , , , , , , , , , , , frizNearRight.jpg, The force is forehand., right, , , , , frizNearRight.jpg, The force is forehand., right, 1, 3, 19, 3, 92676929, Sun Aug 20 2017 10:48:10 GMT-0400 (EDT), Ultimate_Frisbee, 60
, , , , , , , , , , , , right, 1, 1.1469999999999914, , , , , , , , , , , , frizNearLeft.jpg, The force is away., right, , , , , frizNearLeft.jpg, The force is away., right, 1, 4, 20, 14, 92676929, Sun Aug 20 2017 10:48:10 GMT-0400 (EDT), Ultimate_Frisbee, 60
, , , , , , , , , , , , right, 1, 2.8590000000000373, , , , , , , , , , , , frizFarLeft.jpg, The force is backhand., right, , , , , frizFarLeft.jpg, The force is backhand., right, 1, 5, 21, 4, 92676929, Sun Aug 20 2017 10:48:10 GMT-0400 (EDT), Ultimate_Frisbee, 60
, , , , , , , , , , , , left, 1, 1.3139999999999645, , , , , , , , , , , , frizNearRight.jpg, The force is backhand., left, , , , , frizNearRight.jpg, The force is backhand., left, 1, 6, 22, 7, 92676929, Sun Aug 20 2017 10:48:10 GMT-0400 (EDT), Ultimate_Frisbee, 60
, , , , , , , , , , , , right, 1, 1.2629999999999768, , , , , , , , , , , , frizFarRight.jpg, The force is backhand., right, , , , , frizFarRight.jpg, The force is backhand., right, 1, 7, 23, 5, 92676929, Sun Aug 20 2017 10:48:10 GMT-0400 (EDT), Ultimate_Frisbee, 60
, , , , , , , , , , , , left, 1, 0.8809999999999718, , , , , , , , , , , , frizFarRight.jpg, The force is forehand., left, , , , , frizFarRight.jpg, The force is forehand., left, 1, 8, 24, 1, 92676929, Sun Aug 20 2017 10:48:10 GMT-0400 (EDT), Ultimate_Frisbee, 60
, , , , , , , , , , , , left, 1, 1.0480000000000018, , , , , , , , , , , , frizNearLeft.jpg, The force is home., left, , , , , frizNearLeft.jpg, The force is home., left, 1, 9, 25, 10, 92676929, Sun Aug 20 2017 10:48:10 GMT-0400 (EDT), Ultimate_Frisbee, 60
, , , , , , , , , , , , right, 1, 1.5130000000000337, , , , , , , , , , , , frizFarRight.jpg, The force is home., right, , , , , frizFarRight.jpg, The force is home., right, 1, 10, 26, 9, 92676929, Sun Aug 20 2017 10:48:10 GMT-0400 (EDT), Ultimate_Frisbee, 60
, , , , , , , , , , , , left, 1, 1.1310000000000286, , , , , , , , , , , , frizNearLeft.jpg, The force is backhand., left, , , , , frizNearLeft.jpg, The force is backhand., left, 1, 11, 27, 6, 92676929, Sun Aug 20 2017 10:48:10 GMT-0400 (EDT), Ultimate_Frisbee, 60
, , , , , , , , , , , , left, 1, 1.0469999999999686, , , , , , , , , , , , frizFarLeft.jpg, The force is home., left, , , , , frizFarLeft.jpg, The force is home., left, 1, 12, 28, 8, 92676929, Sun Aug 20 2017 10:48:10 GMT-0400 (EDT), Ultimate_Frisbee, 60
, , , , , , , , , , , , right, 1, 0.76400000000001, , , , , , , , , , , , frizNearLeft.jpg, The force is forehand., right, , , , , frizNearLeft.jpg, The force is forehand., right, 1, 13, 29, 2, 92676929, Sun Aug 20 2017 10:48:10 GMT-0400 (EDT), Ultimate_Frisbee, 60
, , , , , , , , , , , , right, 1, 1.18100000000004, , , , , , , , , , , , frizFarLeft.jpg, The force is away., right, , , , , frizFarLeft.jpg, The force is away., right, 1, 14, 30, 12, 92676929, Sun Aug 20 2017 10:48:10 GMT-0400 (EDT), Ultimate_Frisbee, 60
, , , , , , , , , , , , right, 1, 0.7320000000000277, , , , , , , , , , , , frizNearRight.jpg, The force is home., right, , , , , frizNearRight.jpg, The force is home., right, 1, 15, 31, 11, 92676929, Sun Aug 20 2017 10:48:10 GMT-0400 (EDT), Ultimate_Frisbee, 60
, , , , , , , , , , , , left, 1, 1.2799999999999727, , , , , , , , , , , , frizFarRight.jpg, The force is forehand., left, , , , , frizFarRight.jpg, The force is forehand., left, 2, 0, 32, 1, 92676929, Sun Aug 20 2017 10:48:10 GMT-0400 (EDT), Ultimate_Frisbee, 60
, , , , , , , , , , , , right, 1, 0.7479999999999905, , , , , , , , , , , , frizFarRight.jpg, The force is home., right, , , , , frizFarRight.jpg, The force is home., right, 2, 1, 33, 9, 92676929, Sun Aug 20 2017 10:48:10 GMT-0400 (EDT), Ultimate_Frisbee, 60
, , , , , , , , , , , , right, 1, 0.8149999999999977, , , , , , , , , , , , frizFarLeft.jpg, The force is away., right, , , , , frizFarLeft.jpg, The force is away., right, 2, 2, 34, 12, 92676929, Sun Aug 20 2017 10:48:10 GMT-0400 (EDT), Ultimate_Frisbee, 60
, , , , , , , , , , , , right, 1, 1.1299999999999955, , , , , , , , , , , , frizNearLeft.jpg, The force is forehand., right, , , , , frizNearLeft.jpg, The force is forehand., right, 2, 3, 35, 2, 92676929, Sun Aug 20 2017 10:48:10 GMT-0400 (EDT), Ultimate_Frisbee, 60
, , , , , , , , , , , , left, 1, 1.1970000000000027, , , , , , , , , , , , frizNearRight.jpg, The force is backhand., left, , , , , frizNearRight.jpg, The force is backhand., left, 2, 4, 36, 7, 92676929, Sun Aug 20 2017 10:48:10 GMT-0400 (EDT), Ultimate_Frisbee, 60
, , , , , , , , , , , , left, 1, 0.93100000000004, , , , , , , , , , , , frizNearRight.jpg, The force is away., left, , , , , frizNearRight.jpg, The force is away., left, 2, 5, 37, 15, 92676929, Sun Aug 20 2017 10:48:10 GMT-0400 (EDT), Ultimate_Frisbee, 60
, , , , , , , , , , , , left, 1, 1.1129999999999995, , , , , , , , , , , , frizNearLeft.jpg, The force is backhand., left, , , , , frizNearLeft.jpg, The force is backhand., left, 2, 6, 38, 6, 92676929, Sun Aug 20 2017 10:48:10 GMT-0400 (EDT), Ultimate_Frisbee, 60
, , , , , , , , , , , , right, 1, 0.9149999999999636, , , , , , , , , , , , frizNearRight.jpg, The force is forehand., right, , , , , frizNearRight.jpg, The force is forehand., right, 2, 7, 39, 3, 92676929, Sun Aug 20 2017 10:48:10 GMT-0400 (EDT), Ultimate_Frisbee, 60
, , , , , , , , , , , , left, 1, 0.8319999999999936, , , , , , , , , , , , frizFarRight.jpg, The force is away., left, , , , , frizFarRight.jpg, The force is away., left, 2, 8, 40, 13, 92676929, Sun Aug 20 2017 10:48:10 GMT-0400 (EDT), Ultimate_Frisbee, 60
, , , , , , , , , , , , right, 1, 0.714999999999975, , , , , , , , , , , , frizNearLeft.jpg, The force is away., right, , , , , frizNearLeft.jpg, The force is away., right, 2, 9, 41, 14, 92676929, Sun Aug 20 2017 10:48:10 GMT-0400 (EDT), Ultimate_Frisbee, 60
, , , , , , , , , , , , right, 1, 0.8640000000000327, , , , , , , , , , , , frizNearRight.jpg, The force is home., right, , , , , frizNearRight.jpg, The force is home., right, 2, 10, 42, 11, 92676929, Sun Aug 20 2017 10:48:10 GMT-0400 (EDT), Ultimate_Frisbee, 60
, , , , , , , , , , , , left, 1, 0.6820000000000164, , , , , , , , , , , , frizFarLeft.jpg, The force is home., left, , , , , frizFarLeft.jpg, The force is home., left, 2, 11, 43, 8, 92676929, Sun Aug 20 2017 10:48:10 GMT-0400 (EDT), Ultimate_Frisbee, 60
, , , , , , , , , , , , right, 1, 1.0980000000000132, , , , , , , , , , , , frizFarLeft.jpg, The force is backhand., right, , , , , frizFarLeft.jpg, The force is backhand., right, 2, 12, 44, 4, 92676929, Sun Aug 20 2017 10:48:10 GMT-0400 (EDT), Ultimate_Frisbee, 60
, , , , , , , , , , , , left, 1, 0.8979999999999677, , , , , , , , , , , , frizFarLeft.jpg, The force is forehand., left, , , , , frizFarLeft.jpg, The force is forehand., left, 2, 13, 45, 0, 92676929, Sun Aug 20 2017 10:48:10 GMT-0400 (EDT), Ultimate_Frisbee, 60
, , , , , , , , , , , , right, 1, 0.9480000000000359, , , , , , , , , , , , frizFarRight.jpg, The force is backhand., right, , , , , frizFarRight.jpg, The force is backhand., right, 2, 14, 46, 5, 92676929, Sun Aug 20 2017 10:48:10 GMT-0400 (EDT), Ultimate_Frisbee, 60
, , , , , , , , , , , , left, 1, 0.8650000000000091, , , , , , , , , , , , frizNearLeft.jpg, The force is home., left, , , , , frizNearLeft.jpg, The force is home., left, 2, 15, 47, 10, 92676929, Sun Aug 20 2017 10:48:10 GMT-0400 (EDT), Ultimate_Frisbee, 60
, , , , , , , , , , , , right, 1, 0.8480000000000132, , , , , , , , , , , , frizNearLeft.jpg, The force is forehand., right, , , , , frizNearLeft.jpg, The force is forehand., right, 3, 0, 48, 2, 92676929, Sun Aug 20 2017 10:48:10 GMT-0400 (EDT), Ultimate_Frisbee, 60
, , , , , , , , , , , , left, 1, 1.113999999999976, , , , , , , , , , , , frizFarRight.jpg, The force is forehand., left, , , , , frizFarRight.jpg, The force is forehand., left, 3, 1, 49, 1, 92676929, Sun Aug 20 2017 10:48:10 GMT-0400 (EDT), Ultimate_Frisbee, 60
, , , , , , , , , , , , left, 1, 1.2300000000000182, , , , , , , , , , , , frizNearRight.jpg, The force is backhand., left, , , , , frizNearRight.jpg, The force is backhand., left, 3, 2, 50, 7, 92676929, Sun Aug 20 2017 10:48:10 GMT-0400 (EDT), Ultimate_Frisbee, 60
, , , , , , , , , , , , left, 1, 0.9470000000000027, , , , , , , , , , , , frizNearRight.jpg, The force is away., left, , , , , frizNearRight.jpg, The force is away., left, 3, 3, 51, 15, 92676929, Sun Aug 20 2017 10:48:10 GMT-0400 (EDT), Ultimate_Frisbee, 60
, , , , , , , , , , , , left, 1, 1.6299999999999955, , , , , , , , , , , , frizNearLeft.jpg, The force is backhand., left, , , , , frizNearLeft.jpg, The force is backhand., left, 3, 4, 52, 6, 92676929, Sun Aug 20 2017 10:48:10 GMT-0400 (EDT), Ultimate_Frisbee, 60
, , , , , , , , , , , , right, 0, 0.8650000000000091, , , , , , , , , , , , frizFarLeft.jpg, The force is home., left, , , , , frizFarLeft.jpg, The force is home., left, 3, 5, 53, 8, 92676929, Sun Aug 20 2017 10:48:10 GMT-0400 (EDT), Ultimate_Frisbee, 60
, , , , , , , , , , , , right, 1, 0.8149999999999977, , , , , , , , , , , , frizNearRight.jpg, The force is home., right, , , , , frizNearRight.jpg, The force is home., right, 3, 6, 54, 11, 92676929, Sun Aug 20 2017 10:48:10 GMT-0400 (EDT), Ultimate_Frisbee, 60
, , , , , , , , , , , , right, 1, 0.9150000000000205, , , , , , , , , , , , frizFarRight.jpg, The force is home., right, , , , , frizFarRight.jpg, The force is home., right, 3, 7, 55, 9, 92676929, Sun Aug 20 2017 10:48:10 GMT-0400 (EDT), Ultimate_Frisbee, 60
, , , , , , , , , , , , right, 1, 0.5980000000000132, , , , , , , , , , , , frizNearLeft.jpg, The force is away., right, , , , , frizNearLeft.jpg, The force is away., right, 3, 8, 56, 14, 92676929, Sun Aug 20 2017 10:48:10 GMT-0400 (EDT), Ultimate_Frisbee, 60
, , , , , , , , , , , , left, 1, 0.7479999999999905, , , , , , , , , , , , frizNearLeft.jpg, The force is home., left, , , , , frizNearLeft.jpg, The force is home., left, 3, 9, 57, 10, 92676929, Sun Aug 20 2017 10:48:10 GMT-0400 (EDT), Ultimate_Frisbee, 60
, , , , , , , , , , , , left, 1, 1.5289999999999964, , , , , , , , , , , , frizFarLeft.jpg, The force is forehand., left, , , , , frizFarLeft.jpg, The force is forehand., left, 3, 10, 58, 0, 92676929, Sun Aug 20 2017 10:48:10 GMT-0400 (EDT), Ultimate_Frisbee, 60
, , , , , , , , , , , , right, 1, 0.7309999999999945, , , , , , , , , , , , frizNearRight.jpg, The force is forehand., right, , , , , frizNearRight.jpg, The force is forehand., right, 3, 11, 59, 3, 92676929, Sun Aug 20 2017 10:48:10 GMT-0400 (EDT), Ultimate_Frisbee, 60
, , , , , , , , , , , , right, 1, 1.728999999999985, , , , , , , , , , , , frizFarLeft.jpg, The force is backhand., right, , , , , frizFarLeft.jpg, The force is backhand., right, 3, 12, 60, 4, 92676929, Sun Aug 20 2017 10:48:10 GMT-0400 (EDT), Ultimate_Frisbee, 60
, , , , , , , , , , , , left, 1, 1.0810000000000173, , , , , , , , , , , , frizFarRight.jpg, The force is away., left, , , , , frizFarRight.jpg, The force is away., left, 3, 13, 61, 13, 92676929, Sun Aug 20 2017 10:48:10 GMT-0400 (EDT), Ultimate_Frisbee, 60
, , , , , , , , , , , , right, 1, 1.031000000000006, , , , , , , , , , , , frizFarRight.jpg, The force is backhand., right, , , , , frizFarRight.jpg, The force is backhand., right, 3, 14, 62, 5, 92676929, Sun Aug 20 2017 10:48:10 GMT-0400 (EDT), Ultimate_Frisbee, 60
, , , , , , , , , , , , right, 1, 0.8809999999999718, , , , , , , , , , , , frizFarLeft.jpg, The force is away., right, , , , , frizFarLeft.jpg, The force is away., right, 3, 15, 63, 12, 92676929, Sun Aug 20 2017 10:48:10 GMT-0400 (EDT), Ultimate_Frisbee, 60
