Continue.keys, Continue.rt, instructions_response.keys, instructions_response.rt, repeat_response.keys, repeat_response.rt, key_resp_5.keys, key_resp_5.rt, key_resp_2.keys, key_resp_2.rt, key_resp_4.keys, key_resp_4.rt, Trials_response.keys, Trials_response.corr, Trials_response.rt, Block_Continue.keys, Block_Continue.rt, Image, instructions_1_loop.thisRepN, instructions_1_loop.thisTrialN, instructions_1_loop.thisN, instructions_1_loop.thisIndex, instructions_2_repeat.thisRepN, instructions_2_repeat.thisTrialN, instructions_2_repeat.thisN, instructions_2_repeat.thisIndex, stim, prompt, answer, trials_2.thisRepN, trials_2.thisTrialN, trials_2.thisN, trials_2.thisIndex, stim, prompt, answer, trials.thisRepN, trials.thisTrialN, trials.thisN, trials.thisIndex, participant, date, expName, frameRate
space, 0.617, space, 0.015999999999999126, , , , , , , , , , , , , , Slide15.JPG, 0, 0, 0, 0, , , , , , , , , , , , , , , , , , , 2222222222, Wed Aug 16 2017 12:56:22 GMT-0400 (Eastern Daylight Time), Road_Intersection, 60
, , space, 0.03300000000000125, , , , , , , , , , , , , , Slide16.JPG, 0, 1, 1, 1, , , , , , , , , , , , , , , , , , , 2222222222, Wed Aug 16 2017 12:56:22 GMT-0400 (Eastern Daylight Time), Road_Intersection, 60
, , space, 0.01699999999999946, , , , , , , , , , , , , , Slide17.JPG, 0, 2, 2, 2, , , , , , , , , , , , , , , , , , , 2222222222, Wed Aug 16 2017 12:56:22 GMT-0400 (Eastern Daylight Time), Road_Intersection, 60
, , space, 0.03399999999999892, , , , , , , , , , , , , , Slide18.JPG, 0, 3, 3, 3, , , , , , , , , , , , , , , , , , , 2222222222, Wed Aug 16 2017 12:56:22 GMT-0400 (Eastern Daylight Time), Road_Intersection, 60
, , space, 0.014999999999998792, , , , , , , , , , , , , , Slide19.JPG, 0, 4, 4, 4, , , , , , , , , , , , , , , , , , , 2222222222, Wed Aug 16 2017 12:56:22 GMT-0400 (Eastern Daylight Time), Road_Intersection, 60
, , space, 0.01699999999999946, , , , , , , , , , , , , , Slide20.JPG, 0, 5, 5, 5, , , , , , , , , , , , , , , , , , , 2222222222, Wed Aug 16 2017 12:56:22 GMT-0400 (Eastern Daylight Time), Road_Intersection, 60
, , space, 0.03300000000000125, , , , , , , , , , , , , , Slide21.JPG, 0, 6, 6, 6, , , , , , , , , , , , , , , , , , , 2222222222, Wed Aug 16 2017 12:56:22 GMT-0400 (Eastern Daylight Time), Road_Intersection, 60
, , space, 0.01699999999999946, , , , , , , , , , , , , , Slide22.JPG, 0, 7, 7, 7, , , , , , , , , , , , , , , , , , , 2222222222, Wed Aug 16 2017 12:56:22 GMT-0400 (Eastern Daylight Time), Road_Intersection, 60
, , space, 0.01699999999999946, , , , , , , , , , , , , , Slide23.JPG, 0, 8, 8, 8, , , , , , , , , , , , , , , , , , , 2222222222, Wed Aug 16 2017 12:56:22 GMT-0400 (Eastern Daylight Time), Road_Intersection, 60
, , space, 0.03399999999999892, , , , , , , , , , , , , , Slide24.JPG, 0, 9, 9, 9, , , , , , , , , , , , , , , , , , , 2222222222, Wed Aug 16 2017 12:56:22 GMT-0400 (Eastern Daylight Time), Road_Intersection, 60
, , space, 0.03300000000000125, , , , , , , , , , , , , , Slide25.JPG, 0, 10, 10, 10, , , , , , , , , , , , , , , , , , , 2222222222, Wed Aug 16 2017 12:56:22 GMT-0400 (Eastern Daylight Time), Road_Intersection, 60
, , space, 0.01600000000000179, , , , , , , , , , , , , , Slide26.JPG, 0, 11, 11, 11, , , , , , , , , , , , , , , , , , , 2222222222, Wed Aug 16 2017 12:56:22 GMT-0400 (Eastern Daylight Time), Road_Intersection, 60
, , space, 0.03300000000000125, , , , , , , , , , , , , , Slide27.JPG, 0, 12, 12, 12, , , , , , , , , , , , , , , , , , , 2222222222, Wed Aug 16 2017 12:56:22 GMT-0400 (Eastern Daylight Time), Road_Intersection, 60
, , space, 0.01699999999999946, , , , , , , , , , , , , , Slide28.JPG, 0, 13, 13, 13, , , , , , , , , , , , , , , , , , , 2222222222, Wed Aug 16 2017 12:56:22 GMT-0400 (Eastern Daylight Time), Road_Intersection, 60
, , , , 0, 0.815999999999999, space, 1.269000000000002, left, 0.03200000000000003, , , , , , , , , , , , , , , , , navFarLeft.jpg, Go right., left, 0, 0, 0, 0, navFarLeft.jpg, Go right., left, , , , , 2222222222, Wed Aug 16 2017 12:56:22 GMT-0400 (Eastern Daylight Time), Road_Intersection, 60
, , , , , , , , left, 30.714, , , , , , , , , , , , , , , , , navNearLeft.jpg, Go away., right, 0, 1, 1, 1, navNearLeft.jpg, Go away., right, , , , , 2222222222, Wed Aug 16 2017 12:56:22 GMT-0400 (Eastern Daylight Time), Road_Intersection, 60
, , , , , , , , left, 0.015000000000000568, , , , , , , , , , , , , , , , , navFarRight.jpg, Go left., right, 0, 2, 2, 2, navFarRight.jpg, Go left., right, , , , , 2222222222, Wed Aug 16 2017 12:56:22 GMT-0400 (Eastern Daylight Time), Road_Intersection, 60
, , , , , , , , left, 0.016999999999995907, , , , , , , , , , , , , , , , , navNearRight.jpg, Go home. , right, 0, 3, 3, 3, navNearRight.jpg, Go home. , right, , , , , 2222222222, Wed Aug 16 2017 12:56:22 GMT-0400 (Eastern Daylight Time), Road_Intersection, 60
, , , , , , , , left, 0.034000000000006025, , , , , , , , , , , , , , , , , navNearLeft.jpg, Go left., left, 0, 4, 4, 4, navNearLeft.jpg, Go left., left, , , , , 2222222222, Wed Aug 16 2017 12:56:22 GMT-0400 (Eastern Daylight Time), Road_Intersection, 60
, , , , , , , , left, 0.016999999999995907, , , , , , , , , , , , , , , , , navNearRight.jpg, Go home., right, 0, 5, 5, 5, navNearRight.jpg, Go home., right, , , , , 2222222222, Wed Aug 16 2017 12:56:22 GMT-0400 (Eastern Daylight Time), Road_Intersection, 60
, , , , , , , , left, 0.34899999999998954, , , , , , , , , , , , , , , , , navNearLeft.jpg, Go away., right, 0, 6, 6, 6, navNearLeft.jpg, Go away., right, , , , , 2222222222, Wed Aug 16 2017 12:56:22 GMT-0400 (Eastern Daylight Time), Road_Intersection, 60
, , , , , , , , left, 0.03200000000001069, , , , , , , , , , , , , , , , , navFarLeft.jpg, Go right., left, 0, 7, 7, 7, navFarLeft.jpg, Go right., left, , , , , 2222222222, Wed Aug 16 2017 12:56:22 GMT-0400 (Eastern Daylight Time), Road_Intersection, 60
, , , , , , , , , , space, 3.164999999999992, left, 0, 0.016000000000005343, , , , , , , , , , , , navNearRight.jpg, Go right. , right, , , , , navNearRight.jpg, Go right. , right, 0, 0, 0, 15, 2222222222, Wed Aug 16 2017 12:56:22 GMT-0400 (Eastern Daylight Time), Road_Intersection, 60
, , , , , , , , , , , , left, 0, 0.46699999999999875, , , , , , , , , , , , navNearRight.jpg, Go home., right, , , , , navNearRight.jpg, Go home., right, 0, 1, 1, 3, 2222222222, Wed Aug 16 2017 12:56:22 GMT-0400 (Eastern Daylight Time), Road_Intersection, 60
, , , , , , , , , , , , right, 1, 0.4680000000000035, , , , , , , , , , , , navNearLeft.jpg, Go right. , right, , , , , navNearLeft.jpg, Go right. , right, 0, 2, 2, 14, 2222222222, Wed Aug 16 2017 12:56:22 GMT-0400 (Eastern Daylight Time), Road_Intersection, 60
, , , , , , , , , , , , right, 0, 0.9159999999999968, , , , , , , , , , , , navNearRight.jpg, Go away. , left, , , , , navNearRight.jpg, Go away. , left, 0, 3, 3, 7, 2222222222, Wed Aug 16 2017 12:56:22 GMT-0400 (Eastern Daylight Time), Road_Intersection, 60
, , , , , , , , , , , , left, 1, 0.6850000000000023, , , , , , , , , , , , navFarLeft.jpg, Go home., left, , , , , navFarLeft.jpg, Go home., left, 0, 4, 4, 0, 2222222222, Wed Aug 16 2017 12:56:22 GMT-0400 (Eastern Daylight Time), Road_Intersection, 60
, , , , , , , , , , , , left, 0, 1.9849999999999852, , , , , , , , , , , , navFarRight.jpg, Go home., right, , , , , navFarRight.jpg, Go home., right, 0, 5, 5, 1, 2222222222, Wed Aug 16 2017 12:56:22 GMT-0400 (Eastern Daylight Time), Road_Intersection, 60
, , , , , , , , , , , , left, 1, 2.1030000000000086, , , , , , , , , , , , navNearLeft.jpg, Go left. , left, , , , , navNearLeft.jpg, Go left. , left, 0, 6, 6, 10, 2222222222, Wed Aug 16 2017 12:56:22 GMT-0400 (Eastern Daylight Time), Road_Intersection, 60
, , , , , , , , , , , , left, 0, 7.807999999999993, , , , , , , , , , , , navFarRight.jpg, Go left. , right, , , , , navFarRight.jpg, Go left. , right, 0, 7, 7, 9, 2222222222, Wed Aug 16 2017 12:56:22 GMT-0400 (Eastern Daylight Time), Road_Intersection, 60
, , , , , , , , , , , , left, 0, 0.01500000000001478, , , , , , , , , , , , navFarLeft.jpg, Go away. , right, , , , , navFarLeft.jpg, Go away. , right, 0, 8, 8, 4, 2222222222, Wed Aug 16 2017 12:56:22 GMT-0400 (Eastern Daylight Time), Road_Intersection, 60
, , , , , , , , , , , , left, 0, 0.016000000000019554, , , , , , , , , , , , navFarLeft.jpg, Go left. , right, , , , , navFarLeft.jpg, Go left. , right, 0, 9, 9, 8, 2222222222, Wed Aug 16 2017 12:56:22 GMT-0400 (Eastern Daylight Time), Road_Intersection, 60
, , , , , , , , , , , , left, 1, 0.03300000000001546, , , , , , , , , , , , navFarLeft.jpg, Go right. , left, , , , , navFarLeft.jpg, Go right. , left, 0, 10, 10, 12, 2222222222, Wed Aug 16 2017 12:56:22 GMT-0400 (Eastern Daylight Time), Road_Intersection, 60
, , , , , , , , , , , , left, 1, 0.016000000000019554, , , , , , , , , , , , navNearLeft.jpg, Go home., left, , , , , navNearLeft.jpg, Go home., left, 0, 11, 11, 2, 2222222222, Wed Aug 16 2017 12:56:22 GMT-0400 (Eastern Daylight Time), Road_Intersection, 60
, , , , , , , , , , , , left, 1, 0.016999999999995907, , , , , , , , , , , , navFarRight.jpg, Go away. , left, , , , , navFarRight.jpg, Go away. , left, 0, 12, 12, 5, 2222222222, Wed Aug 16 2017 12:56:22 GMT-0400 (Eastern Daylight Time), Road_Intersection, 60
, , , , , , , , , , , , left, 1, 0.03300000000001546, , , , , , , , , , , , navNearRight.jpg, Go left. , left, , , , , navNearRight.jpg, Go left. , left, 0, 13, 13, 11, 2222222222, Wed Aug 16 2017 12:56:22 GMT-0400 (Eastern Daylight Time), Road_Intersection, 60
, , , , , , , , , , , , left, 0, 0.015999999999991132, , , , , , , , , , , , navNearLeft.jpg, Go away. , right, , , , , navNearLeft.jpg, Go away. , right, 0, 14, 14, 6, 2222222222, Wed Aug 16 2017 12:56:22 GMT-0400 (Eastern Daylight Time), Road_Intersection, 60
, , , , , , , , , , , , left, 1, 0.016999999999995907, , , , , , , , , , , , navFarRight.jpg, Go right. , left, , , , , navFarRight.jpg, Go right. , left, 0, 15, 15, 13, 2222222222, Wed Aug 16 2017 12:56:22 GMT-0400 (Eastern Daylight Time), Road_Intersection, 60
, , , , , , , , , , , , left, 1, 0.03299999999998704, , , , , , , , , , , , navNearRight.jpg, Go left. , left, , , , , navNearRight.jpg, Go left. , left, 1, 0, 16, 11, 2222222222, Wed Aug 16 2017 12:56:22 GMT-0400 (Eastern Daylight Time), Road_Intersection, 60
, , , , , , , , , , , , left, 0, 0.016999999999995907, , , , , , , , , , , , navFarLeft.jpg, Go away. , right, , , , , navFarLeft.jpg, Go away. , right, 1, 1, 17, 4, 2222222222, Wed Aug 16 2017 12:56:22 GMT-0400 (Eastern Daylight Time), Road_Intersection, 60
, , , , , , , , , , , , left, 0, 0.016999999999995907, , , , , , , , , , , , navNearLeft.jpg, Go right. , right, , , , , navNearLeft.jpg, Go right. , right, 1, 2, 18, 14, 2222222222, Wed Aug 16 2017 12:56:22 GMT-0400 (Eastern Daylight Time), Road_Intersection, 60
, , , , , , , , , , , , left, 1, 0.03299999999998704, , , , , , , , , , , , navFarLeft.jpg, Go home., left, , , , , navFarLeft.jpg, Go home., left, 1, 3, 19, 0, 2222222222, Wed Aug 16 2017 12:56:22 GMT-0400 (Eastern Daylight Time), Road_Intersection, 60
, , , , , , , , , , , , left, 0, 0.01500000000001478, , , , , , , , , , , , navFarRight.jpg, Go left. , right, , , , , navFarRight.jpg, Go left. , right, 1, 4, 20, 9, 2222222222, Wed Aug 16 2017 12:56:22 GMT-0400 (Eastern Daylight Time), Road_Intersection, 60
, , , , , , , , , , , , left, 0, 0.031999999999982265, , , , , , , , , , , , navNearRight.jpg, Go right. , right, , , , , navNearRight.jpg, Go right. , right, 1, 5, 21, 15, 2222222222, Wed Aug 16 2017 12:56:22 GMT-0400 (Eastern Daylight Time), Road_Intersection, 60
, , , , , , , , , , , , left, 1, 0.03299999999998704, , , , , , , , , , , , navFarRight.jpg, Go away. , left, , , , , navFarRight.jpg, Go away. , left, 1, 6, 22, 5, 2222222222, Wed Aug 16 2017 12:56:22 GMT-0400 (Eastern Daylight Time), Road_Intersection, 60
, , , , , , , , , , , , left, 0, 0.015999999999991132, , , , , , , , , , , , navFarRight.jpg, Go home., right, , , , , navFarRight.jpg, Go home., right, 1, 7, 23, 1, 2222222222, Wed Aug 16 2017 12:56:22 GMT-0400 (Eastern Daylight Time), Road_Intersection, 60
, , , , , , , , , , , , left, 0, 0.04999999999998295, , , , , , , , , , , , navFarLeft.jpg, Go left. , right, , , , , navFarLeft.jpg, Go left. , right, 1, 8, 24, 8, 2222222222, Wed Aug 16 2017 12:56:22 GMT-0400 (Eastern Daylight Time), Road_Intersection, 60
, , , , , , , , , , , , left, 1, 0.031999999999982265, , , , , , , , , , , , navFarRight.jpg, Go right. , left, , , , , navFarRight.jpg, Go right. , left, 1, 9, 25, 13, 2222222222, Wed Aug 16 2017 12:56:22 GMT-0400 (Eastern Daylight Time), Road_Intersection, 60
, , , , , , , , , , , , left, 1, 0.020999999999986585, , , , , , , , , , , , navNearLeft.jpg, Go left. , left, , , , , navNearLeft.jpg, Go left. , left, 1, 10, 26, 10, 2222222222, Wed Aug 16 2017 12:56:22 GMT-0400 (Eastern Daylight Time), Road_Intersection, 60
, , , , , , , , , , , , left, 1, 0.015999999999991132, , , , , , , , , , , , navNearRight.jpg, Go away. , left, , , , , navNearRight.jpg, Go away. , left, 1, 11, 27, 7, 2222222222, Wed Aug 16 2017 12:56:22 GMT-0400 (Eastern Daylight Time), Road_Intersection, 60
, , , , , , , , , , , , left, 0, 0.015999999999991132, , , , , , , , , , , , navNearLeft.jpg, Go away. , right, , , , , navNearLeft.jpg, Go away. , right, 1, 12, 28, 6, 2222222222, Wed Aug 16 2017 12:56:22 GMT-0400 (Eastern Daylight Time), Road_Intersection, 60
, , , , , , , , , , , , left, 0, 0.016000000000019554, , , , , , , , , , , , navNearRight.jpg, Go home., right, , , , , navNearRight.jpg, Go home., right, 1, 13, 29, 3, 2222222222, Wed Aug 16 2017 12:56:22 GMT-0400 (Eastern Daylight Time), Road_Intersection, 60
, , , , , , , , , , , , left, 1, 0.03300000000001546, , , , , , , , , , , , navFarLeft.jpg, Go right. , left, , , , , navFarLeft.jpg, Go right. , left, 1, 14, 30, 12, 2222222222, Wed Aug 16 2017 12:56:22 GMT-0400 (Eastern Daylight Time), Road_Intersection, 60
, , , , , , , , , , , , left, 1, 0.01500000000001478, , , , , , , , , , , , navNearLeft.jpg, Go home., left, , , , , navNearLeft.jpg, Go home., left, 1, 15, 31, 2, 2222222222, Wed Aug 16 2017 12:56:22 GMT-0400 (Eastern Daylight Time), Road_Intersection, 60
, , , , , , , , , , , , left, 0, 0.016000000000019554, , , , , , , , , , , , navNearLeft.jpg, Go away. , right, , , , , navNearLeft.jpg, Go away. , right, 2, 0, 32, 6, 2222222222, Wed Aug 16 2017 12:56:22 GMT-0400 (Eastern Daylight Time), Road_Intersection, 60
, , , , , , , , , , , , left, 0, 0.034000000000020236, , , , , , , , , , , , navNearRight.jpg, Go right. , right, , , , , navNearRight.jpg, Go right. , right, 2, 1, 33, 15, 2222222222, Wed Aug 16 2017 12:56:22 GMT-0400 (Eastern Daylight Time), Road_Intersection, 60
, , , , , , , , , , , , left, 1, 0.016999999999995907, , , , , , , , , , , , navNearLeft.jpg, Go home., left, , , , , navNearLeft.jpg, Go home., left, 2, 2, 34, 2, 2222222222, Wed Aug 16 2017 12:56:22 GMT-0400 (Eastern Daylight Time), Road_Intersection, 60
, , , , , , , , , , , , left, 0, 0.018000000000000682, , , , , , , , , , , , navFarRight.jpg, Go left. , right, , , , , navFarRight.jpg, Go left. , right, 2, 3, 35, 9, 2222222222, Wed Aug 16 2017 12:56:22 GMT-0400 (Eastern Daylight Time), Road_Intersection, 60
, , , , , , , , , , , , left, 1, 0.03299999999998704, , , , , , , , , , , , navFarLeft.jpg, Go right. , left, , , , , navFarLeft.jpg, Go right. , left, 2, 4, 36, 12, 2222222222, Wed Aug 16 2017 12:56:22 GMT-0400 (Eastern Daylight Time), Road_Intersection, 60
, , , , , , , , , , , , left, 1, 0.016999999999995907, , , , , , , , , , , , navNearRight.jpg, Go away. , left, , , , , navNearRight.jpg, Go away. , left, 2, 5, 37, 7, 2222222222, Wed Aug 16 2017 12:56:22 GMT-0400 (Eastern Daylight Time), Road_Intersection, 60
, , , , , , , , , , , , left, 1, 0.04899999999997817, , , , , , , , , , , , navFarRight.jpg, Go right. , left, , , , , navFarRight.jpg, Go right. , left, 2, 6, 38, 13, 2222222222, Wed Aug 16 2017 12:56:22 GMT-0400 (Eastern Daylight Time), Road_Intersection, 60
, , , , , , , , , , , , left, 1, 0.034000000000020236, , , , , , , , , , , , navFarLeft.jpg, Go home., left, , , , , navFarLeft.jpg, Go home., left, 2, 7, 39, 0, 2222222222, Wed Aug 16 2017 12:56:22 GMT-0400 (Eastern Daylight Time), Road_Intersection, 60
, , , , , , , , , , , , left, 0, 0.03300000000001546, , , , , , , , , , , , navFarLeft.jpg, Go away. , right, , , , , navFarLeft.jpg, Go away. , right, 2, 8, 40, 4, 2222222222, Wed Aug 16 2017 12:56:22 GMT-0400 (Eastern Daylight Time), Road_Intersection, 60
, , , , , , , , , , , , left, 0, 0.034000000000020236, , , , , , , , , , , , navNearRight.jpg, Go home., right, , , , , navNearRight.jpg, Go home., right, 2, 9, 41, 3, 2222222222, Wed Aug 16 2017 12:56:22 GMT-0400 (Eastern Daylight Time), Road_Intersection, 60
, , , , , , , , , , , , left, 1, 0.016000000000019554, , , , , , , , , , , , navFarRight.jpg, Go away. , left, , , , , navFarRight.jpg, Go away. , left, 2, 10, 42, 5, 2222222222, Wed Aug 16 2017 12:56:22 GMT-0400 (Eastern Daylight Time), Road_Intersection, 60
, , , , , , , , , , , , left, 0, 0.01700000000002433, , , , , , , , , , , , navFarLeft.jpg, Go left. , right, , , , , navFarLeft.jpg, Go left. , right, 2, 11, 43, 8, 2222222222, Wed Aug 16 2017 12:56:22 GMT-0400 (Eastern Daylight Time), Road_Intersection, 60
, , , , , , , , , , , , left, 0, 0.03300000000001546, , , , , , , , , , , , navNearLeft.jpg, Go right. , right, , , , , navNearLeft.jpg, Go right. , right, 2, 12, 44, 14, 2222222222, Wed Aug 16 2017 12:56:22 GMT-0400 (Eastern Daylight Time), Road_Intersection, 60
, , , , , , , , , , , , left, 0, 0.016999999999995907, , , , , , , , , , , , navFarRight.jpg, Go home., right, , , , , navFarRight.jpg, Go home., right, 2, 13, 45, 1, 2222222222, Wed Aug 16 2017 12:56:22 GMT-0400 (Eastern Daylight Time), Road_Intersection, 60
, , , , , , , , , , , , left, 1, 0.016999999999995907, , , , , , , , , , , , navNearLeft.jpg, Go left. , left, , , , , navNearLeft.jpg, Go left. , left, 2, 14, 46, 10, 2222222222, Wed Aug 16 2017 12:56:22 GMT-0400 (Eastern Daylight Time), Road_Intersection, 60
, , , , , , , , , , , , left, 1, 0.03299999999998704, , , , , , , , , , , , navNearRight.jpg, Go left. , left, , , , , navNearRight.jpg, Go left. , left, 2, 15, 47, 11, 2222222222, Wed Aug 16 2017 12:56:22 GMT-0400 (Eastern Daylight Time), Road_Intersection, 60
, , , , , , , , , , , , left, 1, 0.015999999999991132, , , , , , , , , , , , navFarRight.jpg, Go away. , left, , , , , navFarRight.jpg, Go away. , left, 3, 0, 48, 5, 2222222222, Wed Aug 16 2017 12:56:22 GMT-0400 (Eastern Daylight Time), Road_Intersection, 60
, , , , , , , , , , , , left, 1, 0.015999999999991132, , , , , , , , , , , , navFarRight.jpg, Go right. , left, , , , , navFarRight.jpg, Go right. , left, 3, 1, 49, 13, 2222222222, Wed Aug 16 2017 12:56:22 GMT-0400 (Eastern Daylight Time), Road_Intersection, 60
, , , , , , , , , , , , left, 1, 0.03299999999998704, , , , , , , , , , , , navNearLeft.jpg, Go left. , left, , , , , navNearLeft.jpg, Go left. , left, 3, 2, 50, 10, 2222222222, Wed Aug 16 2017 12:56:22 GMT-0400 (Eastern Daylight Time), Road_Intersection, 60
, , , , , , , , , , , , left, 0, 0.016999999999995907, , , , , , , , , , , , navNearLeft.jpg, Go away. , right, , , , , navNearLeft.jpg, Go away. , right, 3, 3, 51, 6, 2222222222, Wed Aug 16 2017 12:56:22 GMT-0400 (Eastern Daylight Time), Road_Intersection, 60
, , , , , , , , , , , , left, 1, 0.01500000000001478, , , , , , , , , , , , navNearRight.jpg, Go left. , left, , , , , navNearRight.jpg, Go left. , left, 3, 4, 52, 11, 2222222222, Wed Aug 16 2017 12:56:22 GMT-0400 (Eastern Daylight Time), Road_Intersection, 60
, , , , , , , , , , , , left, 0, 0.03300000000001546, , , , , , , , , , , , navNearRight.jpg, Go home., right, , , , , navNearRight.jpg, Go home., right, 3, 5, 53, 3, 2222222222, Wed Aug 16 2017 12:56:22 GMT-0400 (Eastern Daylight Time), Road_Intersection, 60
, , , , , , , , , , , , left, 0, 0.016999999999995907, , , , , , , , , , , , navNearLeft.jpg, Go right. , right, , , , , navNearLeft.jpg, Go right. , right, 3, 6, 54, 14, 2222222222, Wed Aug 16 2017 12:56:22 GMT-0400 (Eastern Daylight Time), Road_Intersection, 60
, , , , , , , , , , , , left, 1, 0.016999999999995907, , , , , , , , , , , , navFarLeft.jpg, Go home., left, , , , , navFarLeft.jpg, Go home., left, 3, 7, 55, 0, 2222222222, Wed Aug 16 2017 12:56:22 GMT-0400 (Eastern Daylight Time), Road_Intersection, 60
, , , , , , , , , , , , left, 1, 0.03300000000001546, , , , , , , , , , , , navNearRight.jpg, Go away. , left, , , , , navNearRight.jpg, Go away. , left, 3, 8, 56, 7, 2222222222, Wed Aug 16 2017 12:56:22 GMT-0400 (Eastern Daylight Time), Road_Intersection, 60
, , , , , , , , , , , , left, 0, 0.016000000000019554, , , , , , , , , , , , navFarRight.jpg, Go home., right, , , , , navFarRight.jpg, Go home., right, 3, 9, 57, 1, 2222222222, Wed Aug 16 2017 12:56:22 GMT-0400 (Eastern Daylight Time), Road_Intersection, 60
, , , , , , , , , , , , left, 0, 0.016999999999995907, , , , , , , , , , , , navNearRight.jpg, Go right. , right, , , , , navNearRight.jpg, Go right. , right, 3, 10, 58, 15, 2222222222, Wed Aug 16 2017 12:56:22 GMT-0400 (Eastern Daylight Time), Road_Intersection, 60
, , , , , , , , , , , , left, 0, 0.03300000000001546, , , , , , , , , , , , navFarLeft.jpg, Go left. , right, , , , , navFarLeft.jpg, Go left. , right, 3, 11, 59, 8, 2222222222, Wed Aug 16 2017 12:56:22 GMT-0400 (Eastern Daylight Time), Road_Intersection, 60
, , , , , , , , , , , , left, 1, 0.016000000000019554, , , , , , , , , , , , navFarLeft.jpg, Go right. , left, , , , , navFarLeft.jpg, Go right. , left, 3, 12, 60, 12, 2222222222, Wed Aug 16 2017 12:56:22 GMT-0400 (Eastern Daylight Time), Road_Intersection, 60
, , , , , , , , , , , , left, 0, 0.016000000000019554, , , , , , , , , , , , navFarRight.jpg, Go left. , right, , , , , navFarRight.jpg, Go left. , right, 3, 13, 61, 9, 2222222222, Wed Aug 16 2017 12:56:22 GMT-0400 (Eastern Daylight Time), Road_Intersection, 60
, , , , , , , , , , , , left, 0, 0.016000000000019554, , , , , , , , , , , , navFarLeft.jpg, Go away. , right, , , , , navFarLeft.jpg, Go away. , right, 3, 14, 62, 4, 2222222222, Wed Aug 16 2017 12:56:22 GMT-0400 (Eastern Daylight Time), Road_Intersection, 60
, , , , , , , , , , , , left, 1, 0.018000000000029104, , , , , , , , , , , , navNearLeft.jpg, Go home., left, , , , , navNearLeft.jpg, Go home., left, 3, 15, 63, 2, 2222222222, Wed Aug 16 2017 12:56:22 GMT-0400 (Eastern Daylight Time), Road_Intersection, 60
