Continue.keys, Continue.rt, instructions_response.keys, instructions_response.rt, repeat_response.keys, repeat_response.rt, key_resp_5.keys, key_resp_5.rt, key_resp_2.keys, key_resp_2.rt, key_resp_4.keys, key_resp_4.rt, Trials_response.keys, Trials_response.corr, Trials_response.rt, Block_Continue.keys, Block_Continue.rt, Image, instructions_1_loop.thisRepN, instructions_1_loop.thisTrialN, instructions_1_loop.thisN, instructions_1_loop.thisIndex, instructions_2_repeat.thisRepN, instructions_2_repeat.thisTrialN, instructions_2_repeat.thisN, instructions_2_repeat.thisIndex, stim, prompt, answer, trials_2.thisRepN, trials_2.thisTrialN, trials_2.thisN, trials_2.thisIndex, stim, prompt, answer, trials.thisRepN, trials.thisTrialN, trials.thisN, trials.thisIndex, participant, date, expName, frameRate
space, 1.0549999999999997, space, 3.66, , , , , , , , , , , , , , Slide15.JPG, 0, 0, 0, 0, , , , , , , , , , , , , , , , , , , 22363073, Wed Nov 15 2017 13:42:38 GMT-0500 (Eastern Standard Time), Road_Intersection, 60
, , space, 8.397999999999996, , , , , , , , , , , , , , Slide16.JPG, 0, 1, 1, 1, , , , , , , , , , , , , , , , , , , 22363073, Wed Nov 15 2017 13:42:38 GMT-0500 (Eastern Standard Time), Road_Intersection, 60
, , space, 3.676000000000002, , , , , , , , , , , , , , Slide17.JPG, 0, 2, 2, 2, , , , , , , , , , , , , , , , , , , 22363073, Wed Nov 15 2017 13:42:38 GMT-0500 (Eastern Standard Time), Road_Intersection, 60
, , space, 5.392000000000003, , , , , , , , , , , , , , Slide18.JPG, 0, 3, 3, 3, , , , , , , , , , , , , , , , , , , 22363073, Wed Nov 15 2017 13:42:38 GMT-0500 (Eastern Standard Time), Road_Intersection, 60
, , space, 14.514999999999993, , , , , , , , , , , , , , Slide19.JPG, 0, 4, 4, 4, , , , , , , , , , , , , , , , , , , 22363073, Wed Nov 15 2017 13:42:38 GMT-0500 (Eastern Standard Time), Road_Intersection, 60
, , space, 10.143, , , , , , , , , , , , , , Slide20.JPG, 0, 5, 5, 5, , , , , , , , , , , , , , , , , , , 22363073, Wed Nov 15 2017 13:42:38 GMT-0500 (Eastern Standard Time), Road_Intersection, 60
, , space, 7.045000000000002, , , , , , , , , , , , , , Slide21.JPG, 0, 6, 6, 6, , , , , , , , , , , , , , , , , , , 22363073, Wed Nov 15 2017 13:42:38 GMT-0500 (Eastern Standard Time), Road_Intersection, 60
, , space, 7.915000000000006, , , , , , , , , , , , , , Slide22.JPG, 0, 7, 7, 7, , , , , , , , , , , , , , , , , , , 22363073, Wed Nov 15 2017 13:42:38 GMT-0500 (Eastern Standard Time), Road_Intersection, 60
, , space, 5.225999999999999, , , , , , , , , , , , , , Slide23.JPG, 0, 8, 8, 8, , , , , , , , , , , , , , , , , , , 22363073, Wed Nov 15 2017 13:42:38 GMT-0500 (Eastern Standard Time), Road_Intersection, 60
, , space, 3.3710000000000093, , , , , , , , , , , , , , Slide24.JPG, 0, 9, 9, 9, , , , , , , , , , , , , , , , , , , 22363073, Wed Nov 15 2017 13:42:38 GMT-0500 (Eastern Standard Time), Road_Intersection, 60
, , space, 2.537000000000006, , , , , , , , , , , , , , Slide25.JPG, 0, 10, 10, 10, , , , , , , , , , , , , , , , , , , 22363073, Wed Nov 15 2017 13:42:38 GMT-0500 (Eastern Standard Time), Road_Intersection, 60
, , space, 1.570999999999998, , , , , , , , , , , , , , Slide26.JPG, 0, 11, 11, 11, , , , , , , , , , , , , , , , , , , 22363073, Wed Nov 15 2017 13:42:38 GMT-0500 (Eastern Standard Time), Road_Intersection, 60
, , space, 2.2079999999999984, , , , , , , , , , , , , , Slide27.JPG, 0, 12, 12, 12, , , , , , , , , , , , , , , , , , , 22363073, Wed Nov 15 2017 13:42:38 GMT-0500 (Eastern Standard Time), Road_Intersection, 60
, , space, 3.3530000000000086, , , , , , , , , , , , , , Slide28.JPG, 0, 13, 13, 13, , , , , , , , , , , , , , , , , , , 22363073, Wed Nov 15 2017 13:42:38 GMT-0500 (Eastern Standard Time), Road_Intersection, 60
, , , , 0, 3.3529999999999944, space, 5.297999999999988, left, 2.8029999999999973, , , , , , , , , , , , , , , , , navFarLeft.jpg, Go right., left, 0, 0, 0, 0, navFarLeft.jpg, Go right., left, , , , , 22363073, Wed Nov 15 2017 13:42:38 GMT-0500 (Eastern Standard Time), Road_Intersection, 60
, , , , , , , , right, 1.1999999999999886, , , , , , , , , , , , , , , , , navNearLeft.jpg, Go away., right, 0, 1, 1, 1, navNearLeft.jpg, Go away., right, , , , , 22363073, Wed Nov 15 2017 13:42:38 GMT-0500 (Eastern Standard Time), Road_Intersection, 60
, , , , , , , , right, 3.521000000000015, , , , , , , , , , , , , , , , , navFarRight.jpg, Go left., right, 0, 2, 2, 2, navFarRight.jpg, Go left., right, , , , , 22363073, Wed Nov 15 2017 13:42:38 GMT-0500 (Eastern Standard Time), Road_Intersection, 60
, , , , , , , , right, 0.7980000000000018, , , , , , , , , , , , , , , , , navNearRight.jpg, Go home. , right, 0, 3, 3, 3, navNearRight.jpg, Go home. , right, , , , , 22363073, Wed Nov 15 2017 13:42:38 GMT-0500 (Eastern Standard Time), Road_Intersection, 60
, , , , , , , , left, 1.1620000000000061, , , , , , , , , , , , , , , , , navNearLeft.jpg, Go left., left, 0, 4, 4, 4, navNearLeft.jpg, Go left., left, , , , , 22363073, Wed Nov 15 2017 13:42:38 GMT-0500 (Eastern Standard Time), Road_Intersection, 60
, , , , , , , , right, 2.9560000000000173, , , , , , , , , , , , , , , , , navNearRight.jpg, Go home., right, 0, 5, 5, 5, navNearRight.jpg, Go home., right, , , , , 22363073, Wed Nov 15 2017 13:42:38 GMT-0500 (Eastern Standard Time), Road_Intersection, 60
, , , , , , , , right, 0.7340000000000089, , , , , , , , , , , , , , , , , navNearLeft.jpg, Go away., right, 0, 6, 6, 6, navNearLeft.jpg, Go away., right, , , , , 22363073, Wed Nov 15 2017 13:42:38 GMT-0500 (Eastern Standard Time), Road_Intersection, 60
, , , , , , , , left, 1.8689999999999998, , , , , , , , , , , , , , , , , navFarLeft.jpg, Go right., left, 0, 7, 7, 7, navFarLeft.jpg, Go right., left, , , , , 22363073, Wed Nov 15 2017 13:42:38 GMT-0500 (Eastern Standard Time), Road_Intersection, 60
, , , , , , , , , , space, 16.27600000000001, right, 1, 0.7179999999999893, , , , , , , , , , , , navNearRight.jpg, Go right. , right, , , , , navNearRight.jpg, Go right. , right, 0, 0, 0, 15, 22363073, Wed Nov 15 2017 13:42:38 GMT-0500 (Eastern Standard Time), Road_Intersection, 60
, , , , , , , , , , , , left, 1, 1.0509999999999877, , , , , , , , , , , , navFarRight.jpg, Go away. , left, , , , , navFarRight.jpg, Go away. , left, 0, 1, 1, 5, 22363073, Wed Nov 15 2017 13:42:38 GMT-0500 (Eastern Standard Time), Road_Intersection, 60
, , , , , , , , , , , , right, 1, 0.5529999999999973, , , , , , , , , , , , navNearRight.jpg, Go home., right, , , , , navNearRight.jpg, Go home., right, 0, 2, 2, 3, 22363073, Wed Nov 15 2017 13:42:38 GMT-0500 (Eastern Standard Time), Road_Intersection, 60
, , , , , , , , , , , , left, 1, 0.75, , , , , , , , , , , , navFarLeft.jpg, Go home., left, , , , , navFarLeft.jpg, Go home., left, 0, 3, 3, 0, 22363073, Wed Nov 15 2017 13:42:38 GMT-0500 (Eastern Standard Time), Road_Intersection, 60
, , , , , , , , , , , , right, 1, 1.117999999999995, , , , , , , , , , , , navNearLeft.jpg, Go right. , right, , , , , navNearLeft.jpg, Go right. , right, 0, 4, 4, 14, 22363073, Wed Nov 15 2017 13:42:38 GMT-0500 (Eastern Standard Time), Road_Intersection, 60
, , , , , , , , , , , , right, 1, 1.953000000000003, , , , , , , , , , , , navFarLeft.jpg, Go left. , right, , , , , navFarLeft.jpg, Go left. , right, 0, 5, 5, 8, 22363073, Wed Nov 15 2017 13:42:38 GMT-0500 (Eastern Standard Time), Road_Intersection, 60
, , , , , , , , , , , , right, 1, 0.9629999999999939, , , , , , , , , , , , navFarRight.jpg, Go home., right, , , , , navFarRight.jpg, Go home., right, 0, 6, 6, 1, 22363073, Wed Nov 15 2017 13:42:38 GMT-0500 (Eastern Standard Time), Road_Intersection, 60
, , , , , , , , , , , , right, 1, 0.9860000000000184, , , , , , , , , , , , navNearLeft.jpg, Go away. , right, , , , , navNearLeft.jpg, Go away. , right, 0, 7, 7, 6, 22363073, Wed Nov 15 2017 13:42:38 GMT-0500 (Eastern Standard Time), Road_Intersection, 60
, , , , , , , , , , , , left, 1, 0.7700000000000102, , , , , , , , , , , , navNearLeft.jpg, Go left. , left, , , , , navNearLeft.jpg, Go left. , left, 0, 8, 8, 10, 22363073, Wed Nov 15 2017 13:42:38 GMT-0500 (Eastern Standard Time), Road_Intersection, 60
, , , , , , , , , , , , left, 1, 0.681999999999988, , , , , , , , , , , , navNearLeft.jpg, Go home., left, , , , , navNearLeft.jpg, Go home., left, 0, 9, 9, 2, 22363073, Wed Nov 15 2017 13:42:38 GMT-0500 (Eastern Standard Time), Road_Intersection, 60
, , , , , , , , , , , , left, 1, 1.2340000000000089, , , , , , , , , , , , navFarRight.jpg, Go right. , left, , , , , navFarRight.jpg, Go right. , left, 0, 10, 10, 13, 22363073, Wed Nov 15 2017 13:42:38 GMT-0500 (Eastern Standard Time), Road_Intersection, 60
, , , , , , , , , , , , right, 1, 0.9060000000000059, , , , , , , , , , , , navFarLeft.jpg, Go away. , right, , , , , navFarLeft.jpg, Go away. , right, 0, 11, 11, 4, 22363073, Wed Nov 15 2017 13:42:38 GMT-0500 (Eastern Standard Time), Road_Intersection, 60
, , , , , , , , , , , , left, 1, 1.9339999999999975, , , , , , , , , , , , navFarLeft.jpg, Go right. , left, , , , , navFarLeft.jpg, Go right. , left, 0, 12, 12, 12, 22363073, Wed Nov 15 2017 13:42:38 GMT-0500 (Eastern Standard Time), Road_Intersection, 60
, , , , , , , , , , , , left, 1, 0.8189999999999884, , , , , , , , , , , , navNearRight.jpg, Go left. , left, , , , , navNearRight.jpg, Go left. , left, 0, 13, 13, 11, 22363073, Wed Nov 15 2017 13:42:38 GMT-0500 (Eastern Standard Time), Road_Intersection, 60
, , , , , , , , , , , , left, 1, 0.914999999999992, , , , , , , , , , , , navNearRight.jpg, Go away. , left, , , , , navNearRight.jpg, Go away. , left, 0, 14, 14, 7, 22363073, Wed Nov 15 2017 13:42:38 GMT-0500 (Eastern Standard Time), Road_Intersection, 60
, , , , , , , , , , , , right, 1, 1.4540000000000077, , , , , , , , , , , , navFarRight.jpg, Go left. , right, , , , , navFarRight.jpg, Go left. , right, 0, 15, 15, 9, 22363073, Wed Nov 15 2017 13:42:38 GMT-0500 (Eastern Standard Time), Road_Intersection, 60
, , , , , , , , , , , , right, 1, 1.134999999999991, , , , , , , , , , , , navFarLeft.jpg, Go left. , right, , , , , navFarLeft.jpg, Go left. , right, 1, 0, 16, 8, 22363073, Wed Nov 15 2017 13:42:38 GMT-0500 (Eastern Standard Time), Road_Intersection, 60
, , , , , , , , , , , , left, 1, 0.8480000000000132, , , , , , , , , , , , navFarRight.jpg, Go away. , left, , , , , navFarRight.jpg, Go away. , left, 1, 1, 17, 5, 22363073, Wed Nov 15 2017 13:42:38 GMT-0500 (Eastern Standard Time), Road_Intersection, 60
, , , , , , , , , , , , left, 1, 0.6850000000000023, , , , , , , , , , , , navNearRight.jpg, Go away. , left, , , , , navNearRight.jpg, Go away. , left, 1, 2, 18, 7, 22363073, Wed Nov 15 2017 13:42:38 GMT-0500 (Eastern Standard Time), Road_Intersection, 60
, , , , , , , , , , , , right, 1, 0.7350000000000136, , , , , , , , , , , , navFarLeft.jpg, Go away. , right, , , , , navFarLeft.jpg, Go away. , right, 1, 3, 19, 4, 22363073, Wed Nov 15 2017 13:42:38 GMT-0500 (Eastern Standard Time), Road_Intersection, 60
, , , , , , , , , , , , left, 1, 0.75, , , , , , , , , , , , navNearRight.jpg, Go left. , left, , , , , navNearRight.jpg, Go left. , left, 1, 4, 20, 11, 22363073, Wed Nov 15 2017 13:42:38 GMT-0500 (Eastern Standard Time), Road_Intersection, 60
, , , , , , , , , , , , left, 1, 0.6639999999999873, , , , , , , , , , , , navFarLeft.jpg, Go home., left, , , , , navFarLeft.jpg, Go home., left, 1, 5, 21, 0, 22363073, Wed Nov 15 2017 13:42:38 GMT-0500 (Eastern Standard Time), Road_Intersection, 60
, , , , , , , , , , , , left, 1, 1.4840000000000373, , , , , , , , , , , , navFarRight.jpg, Go right. , left, , , , , navFarRight.jpg, Go right. , left, 1, 6, 22, 13, 22363073, Wed Nov 15 2017 13:42:38 GMT-0500 (Eastern Standard Time), Road_Intersection, 60
, , , , , , , , , , , , left, 1, 0.7019999999999982, , , , , , , , , , , , navNearLeft.jpg, Go home., left, , , , , navNearLeft.jpg, Go home., left, 1, 7, 23, 2, 22363073, Wed Nov 15 2017 13:42:38 GMT-0500 (Eastern Standard Time), Road_Intersection, 60
, , , , , , , , , , , , right, 1, 0.6499999999999773, , , , , , , , , , , , navNearRight.jpg, Go right. , right, , , , , navNearRight.jpg, Go right. , right, 1, 8, 24, 15, 22363073, Wed Nov 15 2017 13:42:38 GMT-0500 (Eastern Standard Time), Road_Intersection, 60
, , , , , , , , , , , , right, 1, 0.6169999999999618, , , , , , , , , , , , navNearLeft.jpg, Go right. , right, , , , , navNearLeft.jpg, Go right. , right, 1, 9, 25, 14, 22363073, Wed Nov 15 2017 13:42:38 GMT-0500 (Eastern Standard Time), Road_Intersection, 60
, , , , , , , , , , , , right, 1, 1.3320000000000505, , , , , , , , , , , , navFarRight.jpg, Go left. , right, , , , , navFarRight.jpg, Go left. , right, 1, 10, 26, 9, 22363073, Wed Nov 15 2017 13:42:38 GMT-0500 (Eastern Standard Time), Road_Intersection, 60
, , , , , , , , , , , , right, 1, 0.9350000000000023, , , , , , , , , , , , navNearLeft.jpg, Go away. , right, , , , , navNearLeft.jpg, Go away. , right, 1, 11, 27, 6, 22363073, Wed Nov 15 2017 13:42:38 GMT-0500 (Eastern Standard Time), Road_Intersection, 60
, , , , , , , , , , , , right, 1, 0.6840000000000259, , , , , , , , , , , , navFarRight.jpg, Go home., right, , , , , navFarRight.jpg, Go home., right, 1, 12, 28, 1, 22363073, Wed Nov 15 2017 13:42:38 GMT-0500 (Eastern Standard Time), Road_Intersection, 60
, , , , , , , , , , , , left, 1, 0.9659999999999513, , , , , , , , , , , , navFarLeft.jpg, Go right. , left, , , , , navFarLeft.jpg, Go right. , left, 1, 13, 29, 12, 22363073, Wed Nov 15 2017 13:42:38 GMT-0500 (Eastern Standard Time), Road_Intersection, 60
, , , , , , , , , , , , left, 1, 1.4350000000000023, , , , , , , , , , , , navNearLeft.jpg, Go left. , left, , , , , navNearLeft.jpg, Go left. , left, 1, 14, 30, 10, 22363073, Wed Nov 15 2017 13:42:38 GMT-0500 (Eastern Standard Time), Road_Intersection, 60
, , , , , , , , , , , , right, 1, 0.4830000000000041, , , , , , , , , , , , navNearRight.jpg, Go home., right, , , , , navNearRight.jpg, Go home., right, 1, 15, 31, 3, 22363073, Wed Nov 15 2017 13:42:38 GMT-0500 (Eastern Standard Time), Road_Intersection, 60
, , , , , , , , , , , , left, 1, 0.68100000000004, , , , , , , , , , , , navFarLeft.jpg, Go right. , left, , , , , navFarLeft.jpg, Go right. , left, 2, 0, 32, 12, 22363073, Wed Nov 15 2017 13:42:38 GMT-0500 (Eastern Standard Time), Road_Intersection, 60
, , , , , , , , , , , , right, 1, 1.0049999999999955, , , , , , , , , , , , navNearLeft.jpg, Go away. , right, , , , , navNearLeft.jpg, Go away. , right, 2, 1, 33, 6, 22363073, Wed Nov 15 2017 13:42:38 GMT-0500 (Eastern Standard Time), Road_Intersection, 60
, , , , , , , , , , , , left, 1, 0.6850000000000023, , , , , , , , , , , , navFarRight.jpg, Go right. , left, , , , , navFarRight.jpg, Go right. , left, 2, 2, 34, 13, 22363073, Wed Nov 15 2017 13:42:38 GMT-0500 (Eastern Standard Time), Road_Intersection, 60
, , , , , , , , , , , , left, 1, 0.5669999999999504, , , , , , , , , , , , navNearLeft.jpg, Go home., left, , , , , navNearLeft.jpg, Go home., left, 2, 3, 35, 2, 22363073, Wed Nov 15 2017 13:42:38 GMT-0500 (Eastern Standard Time), Road_Intersection, 60
, , , , , , , , , , , , right, 1, 0.5680000000000405, , , , , , , , , , , , navNearRight.jpg, Go home., right, , , , , navNearRight.jpg, Go home., right, 2, 4, 36, 3, 22363073, Wed Nov 15 2017 13:42:38 GMT-0500 (Eastern Standard Time), Road_Intersection, 60
, , , , , , , , , , , , left, 1, 0.4379999999999882, , , , , , , , , , , , navFarLeft.jpg, Go home., left, , , , , navFarLeft.jpg, Go home., left, 2, 5, 37, 0, 22363073, Wed Nov 15 2017 13:42:38 GMT-0500 (Eastern Standard Time), Road_Intersection, 60
, , , , , , , , , , , , right, 1, 0.8180000000000405, , , , , , , , , , , , navNearLeft.jpg, Go right. , right, , , , , navNearLeft.jpg, Go right. , right, 2, 6, 38, 14, 22363073, Wed Nov 15 2017 13:42:38 GMT-0500 (Eastern Standard Time), Road_Intersection, 60
, , , , , , , , , , , , right, 1, 0.6170000000000186, , , , , , , , , , , , navFarRight.jpg, Go home., right, , , , , navFarRight.jpg, Go home., right, 2, 7, 39, 1, 22363073, Wed Nov 15 2017 13:42:38 GMT-0500 (Eastern Standard Time), Road_Intersection, 60
, , , , , , , , , , , , right, 1, 0.5849999999999795, , , , , , , , , , , , navNearRight.jpg, Go right. , right, , , , , navNearRight.jpg, Go right. , right, 2, 8, 40, 15, 22363073, Wed Nov 15 2017 13:42:38 GMT-0500 (Eastern Standard Time), Road_Intersection, 60
, , , , , , , , , , , , right, 1, 0.8840000000000146, , , , , , , , , , , , navFarRight.jpg, Go left. , right, , , , , navFarRight.jpg, Go left. , right, 2, 9, 41, 9, 22363073, Wed Nov 15 2017 13:42:38 GMT-0500 (Eastern Standard Time), Road_Intersection, 60
, , , , , , , , , , , , right, 1, 1.0710000000000264, , , , , , , , , , , , navFarLeft.jpg, Go left. , right, , , , , navFarLeft.jpg, Go left. , right, 2, 10, 42, 8, 22363073, Wed Nov 15 2017 13:42:38 GMT-0500 (Eastern Standard Time), Road_Intersection, 60
, , , , , , , , , , , , right, 0, 1.0509999999999877, , , , , , , , , , , , navNearLeft.jpg, Go left. , left, , , , , navNearLeft.jpg, Go left. , left, 2, 11, 43, 10, 22363073, Wed Nov 15 2017 13:42:38 GMT-0500 (Eastern Standard Time), Road_Intersection, 60
, , , , , , , , , , , , right, 1, 0.8670000000000186, , , , , , , , , , , , navFarLeft.jpg, Go away. , right, , , , , navFarLeft.jpg, Go away. , right, 2, 12, 44, 4, 22363073, Wed Nov 15 2017 13:42:38 GMT-0500 (Eastern Standard Time), Road_Intersection, 60
, , , , , , , , , , , , left, 1, 0.9190000000000396, , , , , , , , , , , , navFarRight.jpg, Go away. , left, , , , , navFarRight.jpg, Go away. , left, 2, 13, 45, 5, 22363073, Wed Nov 15 2017 13:42:38 GMT-0500 (Eastern Standard Time), Road_Intersection, 60
, , , , , , , , , , , , left, 1, 0.6560000000000059, , , , , , , , , , , , navNearRight.jpg, Go away. , left, , , , , navNearRight.jpg, Go away. , left, 2, 14, 46, 7, 22363073, Wed Nov 15 2017 13:42:38 GMT-0500 (Eastern Standard Time), Road_Intersection, 60
, , , , , , , , , , , , left, 1, 0.7230000000000132, , , , , , , , , , , , navNearRight.jpg, Go left. , left, , , , , navNearRight.jpg, Go left. , left, 2, 15, 47, 11, 22363073, Wed Nov 15 2017 13:42:38 GMT-0500 (Eastern Standard Time), Road_Intersection, 60
, , , , , , , , , , , , left, 1, 0.5200000000000387, , , , , , , , , , , , navNearRight.jpg, Go left. , left, , , , , navNearRight.jpg, Go left. , left, 3, 0, 48, 11, 22363073, Wed Nov 15 2017 13:42:38 GMT-0500 (Eastern Standard Time), Road_Intersection, 60
, , , , , , , , , , , , left, 1, 0.7820000000000391, , , , , , , , , , , , navNearLeft.jpg, Go home., left, , , , , navNearLeft.jpg, Go home., left, 3, 1, 49, 2, 22363073, Wed Nov 15 2017 13:42:38 GMT-0500 (Eastern Standard Time), Road_Intersection, 60
, , , , , , , , , , , , left, 1, 0.7690000000000055, , , , , , , , , , , , navFarRight.jpg, Go away. , left, , , , , navFarRight.jpg, Go away. , left, 3, 2, 50, 5, 22363073, Wed Nov 15 2017 13:42:38 GMT-0500 (Eastern Standard Time), Road_Intersection, 60
, , , , , , , , , , , , right, 1, 0.6840000000000259, , , , , , , , , , , , navFarRight.jpg, Go home., right, , , , , navFarRight.jpg, Go home., right, 3, 3, 51, 1, 22363073, Wed Nov 15 2017 13:42:38 GMT-0500 (Eastern Standard Time), Road_Intersection, 60
, , , , , , , , , , , , left, 1, 1.002999999999986, , , , , , , , , , , , navFarRight.jpg, Go right. , left, , , , , navFarRight.jpg, Go right. , left, 3, 4, 52, 13, 22363073, Wed Nov 15 2017 13:42:38 GMT-0500 (Eastern Standard Time), Road_Intersection, 60
, , , , , , , , , , , , left, 1, 0.9189999999999827, , , , , , , , , , , , navNearLeft.jpg, Go left. , left, , , , , navNearLeft.jpg, Go left. , left, 3, 5, 53, 10, 22363073, Wed Nov 15 2017 13:42:38 GMT-0500 (Eastern Standard Time), Road_Intersection, 60
, , , , , , , , , , , , right, 1, 0.8029999999999973, , , , , , , , , , , , navNearLeft.jpg, Go away. , right, , , , , navNearLeft.jpg, Go away. , right, 3, 6, 54, 6, 22363073, Wed Nov 15 2017 13:42:38 GMT-0500 (Eastern Standard Time), Road_Intersection, 60
, , , , , , , , , , , , right, 1, 0.7829999999999586, , , , , , , , , , , , navNearRight.jpg, Go right. , right, , , , , navNearRight.jpg, Go right. , right, 3, 7, 55, 15, 22363073, Wed Nov 15 2017 13:42:38 GMT-0500 (Eastern Standard Time), Road_Intersection, 60
, , , , , , , , , , , , left, 1, 0.6679999999999495, , , , , , , , , , , , navNearRight.jpg, Go away. , left, , , , , navNearRight.jpg, Go away. , left, 3, 8, 56, 7, 22363073, Wed Nov 15 2017 13:42:38 GMT-0500 (Eastern Standard Time), Road_Intersection, 60
, , , , , , , , , , , , right, 1, 1.0480000000000018, , , , , , , , , , , , navFarLeft.jpg, Go left. , right, , , , , navFarLeft.jpg, Go left. , right, 3, 9, 57, 8, 22363073, Wed Nov 15 2017 13:42:38 GMT-0500 (Eastern Standard Time), Road_Intersection, 60
, , , , , , , , , , , , left, 1, 1.3689999999999714, , , , , , , , , , , , navFarLeft.jpg, Go home., left, , , , , navFarLeft.jpg, Go home., left, 3, 10, 58, 0, 22363073, Wed Nov 15 2017 13:42:38 GMT-0500 (Eastern Standard Time), Road_Intersection, 60
, , , , , , , , , , , , left, 1, 1.2160000000000082, , , , , , , , , , , , navFarLeft.jpg, Go right. , left, , , , , navFarLeft.jpg, Go right. , left, 3, 11, 59, 12, 22363073, Wed Nov 15 2017 13:42:38 GMT-0500 (Eastern Standard Time), Road_Intersection, 60
, , , , , , , , , , , , right, 1, 0.9150000000000205, , , , , , , , , , , , navFarLeft.jpg, Go away. , right, , , , , navFarLeft.jpg, Go away. , right, 3, 12, 60, 4, 22363073, Wed Nov 15 2017 13:42:38 GMT-0500 (Eastern Standard Time), Road_Intersection, 60
, , , , , , , , , , , , right, 1, 0.6979999999999791, , , , , , , , , , , , navNearLeft.jpg, Go right. , right, , , , , navNearLeft.jpg, Go right. , right, 3, 13, 61, 14, 22363073, Wed Nov 15 2017 13:42:38 GMT-0500 (Eastern Standard Time), Road_Intersection, 60
, , , , , , , , , , , , right, 1, 1.0160000000000196, , , , , , , , , , , , navFarRight.jpg, Go left. , right, , , , , navFarRight.jpg, Go left. , right, 3, 14, 62, 9, 22363073, Wed Nov 15 2017 13:42:38 GMT-0500 (Eastern Standard Time), Road_Intersection, 60
, , , , , , , , , , , , right, 1, 0.7889999999999873, , , , , , , , , , , , navNearRight.jpg, Go home., right, , , , , navNearRight.jpg, Go home., right, 3, 15, 63, 3, 22363073, Wed Nov 15 2017 13:42:38 GMT-0500 (Eastern Standard Time), Road_Intersection, 60
