Continue.keys, Continue.rt, instructions_response.keys, instructions_response.rt, repeat_response.keys, repeat_response.rt, key_resp_5.keys, key_resp_5.rt, key_resp_2.keys, key_resp_2.rt, key_resp_4.keys, key_resp_4.rt, Trials_response.keys, Trials_response.corr, Trials_response.rt, Block_Continue.keys, Block_Continue.rt, Image, instructions_1_loop.thisRepN, instructions_1_loop.thisTrialN, instructions_1_loop.thisN, instructions_1_loop.thisIndex, instructions_2_repeat.thisRepN, instructions_2_repeat.thisTrialN, instructions_2_repeat.thisN, instructions_2_repeat.thisIndex, stim, prompt, answer, trials_2.thisRepN, trials_2.thisTrialN, trials_2.thisN, trials_2.thisIndex, stim, prompt, answer, trials.thisRepN, trials.thisTrialN, trials.thisN, trials.thisIndex, participant, date, expName, frameRate
space, 1.3870000000000005, space, 3.8290000000000006, , , , , , , , , , , , , , Slide15.JPG, 0, 0, 0, 0, , , , , , , , , , , , , , , , , , , 23889243, Tue Aug 29 2017 22:57:44 GMT-0400 (EDT), Road_Intersection, 60
, , space, 11.264000000000003, , , , , , , , , , , , , , Slide16.JPG, 0, 1, 1, 1, , , , , , , , , , , , , , , , , , , 23889243, Tue Aug 29 2017 22:57:44 GMT-0400 (EDT), Road_Intersection, 60
, , space, 7.637999999999998, , , , , , , , , , , , , , Slide17.JPG, 0, 2, 2, 2, , , , , , , , , , , , , , , , , , , 23889243, Tue Aug 29 2017 22:57:44 GMT-0400 (EDT), Road_Intersection, 60
, , space, 4.061, , , , , , , , , , , , , , Slide18.JPG, 0, 3, 3, 3, , , , , , , , , , , , , , , , , , , 23889243, Tue Aug 29 2017 22:57:44 GMT-0400 (EDT), Road_Intersection, 60
, , space, 31.669999999999995, , , , , , , , , , , , , , Slide19.JPG, 0, 4, 4, 4, , , , , , , , , , , , , , , , , , , 23889243, Tue Aug 29 2017 22:57:44 GMT-0400 (EDT), Road_Intersection, 60
, , space, 23.614000000000004, , , , , , , , , , , , , , Slide20.JPG, 0, 5, 5, 5, , , , , , , , , , , , , , , , , , , 23889243, Tue Aug 29 2017 22:57:44 GMT-0400 (EDT), Road_Intersection, 60
, , space, 3.9939999999999998, , , , , , , , , , , , , , Slide21.JPG, 0, 6, 6, 6, , , , , , , , , , , , , , , , , , , 23889243, Tue Aug 29 2017 22:57:44 GMT-0400 (EDT), Road_Intersection, 60
, , space, 3.141999999999996, , , , , , , , , , , , , , Slide22.JPG, 0, 7, 7, 7, , , , , , , , , , , , , , , , , , , 23889243, Tue Aug 29 2017 22:57:44 GMT-0400 (EDT), Road_Intersection, 60
, , space, 11.330000000000013, , , , , , , , , , , , , , Slide23.JPG, 0, 8, 8, 8, , , , , , , , , , , , , , , , , , , 23889243, Tue Aug 29 2017 22:57:44 GMT-0400 (EDT), Road_Intersection, 60
, , space, 2.2560000000000002, , , , , , , , , , , , , , Slide24.JPG, 0, 9, 9, 9, , , , , , , , , , , , , , , , , , , 23889243, Tue Aug 29 2017 22:57:44 GMT-0400 (EDT), Road_Intersection, 60
, , space, 4.278999999999996, , , , , , , , , , , , , , Slide25.JPG, 0, 10, 10, 10, , , , , , , , , , , , , , , , , , , 23889243, Tue Aug 29 2017 22:57:44 GMT-0400 (EDT), Road_Intersection, 60
, , space, 3.5600000000000023, , , , , , , , , , , , , , Slide26.JPG, 0, 11, 11, 11, , , , , , , , , , , , , , , , , , , 23889243, Tue Aug 29 2017 22:57:44 GMT-0400 (EDT), Road_Intersection, 60
, , space, 1.7539999999999907, , , , , , , , , , , , , , Slide27.JPG, 0, 12, 12, 12, , , , , , , , , , , , , , , , , , , 23889243, Tue Aug 29 2017 22:57:44 GMT-0400 (EDT), Road_Intersection, 60
, , space, 1.0529999999999973, , , , , , , , , , , , , , Slide28.JPG, 0, 13, 13, 13, , , , , , , , , , , , , , , , , , , 23889243, Tue Aug 29 2017 22:57:44 GMT-0400 (EDT), Road_Intersection, 60
, , , , 0, 4.211000000000013, space, 2.507000000000005, left, 1.6210000000000093, , , , , , , , , , , , , , , , , navFarLeft.jpg, Go right., left, 0, 0, 0, 0, navFarLeft.jpg, Go right., left, , , , , 23889243, Tue Aug 29 2017 22:57:44 GMT-0400 (EDT), Road_Intersection, 60
, , , , , , , , right, 0.818000000000012, , , , , , , , , , , , , , , , , navNearLeft.jpg, Go away., right, 0, 1, 1, 1, navNearLeft.jpg, Go away., right, , , , , 23889243, Tue Aug 29 2017 22:57:44 GMT-0400 (EDT), Road_Intersection, 60
, , , , , , , , right, 1.535999999999973, , , , , , , , , , , , , , , , , navFarRight.jpg, Go left., right, 0, 2, 2, 2, navFarRight.jpg, Go left., right, , , , , 23889243, Tue Aug 29 2017 22:57:44 GMT-0400 (EDT), Road_Intersection, 60
, , , , , , , , right, 0.7839999999999918, , , , , , , , , , , , , , , , , navNearRight.jpg, Go home. , right, 0, 3, 3, 3, navNearRight.jpg, Go home. , right, , , , , 23889243, Tue Aug 29 2017 22:57:44 GMT-0400 (EDT), Road_Intersection, 60
, , , , , , , , left, 0.7510000000000048, , , , , , , , , , , , , , , , , navNearLeft.jpg, Go left., left, 0, 4, 4, 4, navNearLeft.jpg, Go left., left, , , , , 23889243, Tue Aug 29 2017 22:57:44 GMT-0400 (EDT), Road_Intersection, 60
, , , , , , , , right, 0.7680000000000007, , , , , , , , , , , , , , , , , navNearRight.jpg, Go home., right, 0, 5, 5, 5, navNearRight.jpg, Go home., right, , , , , 23889243, Tue Aug 29 2017 22:57:44 GMT-0400 (EDT), Road_Intersection, 60
, , , , , , , , right, 0.7849999999999966, , , , , , , , , , , , , , , , , navNearLeft.jpg, Go away., right, 0, 6, 6, 6, navNearLeft.jpg, Go away., right, , , , , 23889243, Tue Aug 29 2017 22:57:44 GMT-0400 (EDT), Road_Intersection, 60
, , , , , , , , left, 1.0190000000000055, , , , , , , , , , , , , , , , , navFarLeft.jpg, Go right., left, 0, 7, 7, 7, navFarLeft.jpg, Go right., left, , , , , 23889243, Tue Aug 29 2017 22:57:44 GMT-0400 (EDT), Road_Intersection, 60
, , , , , , , , , , space, 2.806999999999988, right, 1, 0.8190000000000168, , , , , , , , , , , , navFarRight.jpg, Go home., right, , , , , navFarRight.jpg, Go home., right, 0, 0, 0, 1, 23889243, Tue Aug 29 2017 22:57:44 GMT-0400 (EDT), Road_Intersection, 60
, , , , , , , , , , , , right, 1, 0.6689999999999827, , , , , , , , , , , , navNearRight.jpg, Go home., right, , , , , navNearRight.jpg, Go home., right, 0, 1, 1, 3, 23889243, Tue Aug 29 2017 22:57:44 GMT-0400 (EDT), Road_Intersection, 60
, , , , , , , , , , , , left, 1, 0.5849999999999795, , , , , , , , , , , , navNearRight.jpg, Go away. , left, , , , , navNearRight.jpg, Go away. , left, 0, 2, 2, 7, 23889243, Tue Aug 29 2017 22:57:44 GMT-0400 (EDT), Road_Intersection, 60
, , , , , , , , , , , , left, 1, 0.7859999999999729, , , , , , , , , , , , navFarRight.jpg, Go away. , left, , , , , navFarRight.jpg, Go away. , left, 0, 3, 3, 5, 23889243, Tue Aug 29 2017 22:57:44 GMT-0400 (EDT), Road_Intersection, 60
, , , , , , , , , , , , left, 1, 0.8859999999999957, , , , , , , , , , , , navFarLeft.jpg, Go right. , left, , , , , navFarLeft.jpg, Go right. , left, 0, 4, 4, 12, 23889243, Tue Aug 29 2017 22:57:44 GMT-0400 (EDT), Road_Intersection, 60
, , , , , , , , , , , , left, 1, 0.650999999999982, , , , , , , , , , , , navNearLeft.jpg, Go left. , left, , , , , navNearLeft.jpg, Go left. , left, 0, 5, 5, 10, 23889243, Tue Aug 29 2017 22:57:44 GMT-0400 (EDT), Road_Intersection, 60
, , , , , , , , , , , , left, 1, 1.0190000000000055, , , , , , , , , , , , navFarRight.jpg, Go right. , left, , , , , navFarRight.jpg, Go right. , left, 0, 6, 6, 13, 23889243, Tue Aug 29 2017 22:57:44 GMT-0400 (EDT), Road_Intersection, 60
, , , , , , , , , , , , left, 1, 1.504000000000019, , , , , , , , , , , , navFarLeft.jpg, Go home., left, , , , , navFarLeft.jpg, Go home., left, 0, 7, 7, 0, 23889243, Tue Aug 29 2017 22:57:44 GMT-0400 (EDT), Road_Intersection, 60
, , , , , , , , , , , , left, 1, 0.518999999999977, , , , , , , , , , , , navNearLeft.jpg, Go home., left, , , , , navNearLeft.jpg, Go home., left, 0, 8, 8, 2, 23889243, Tue Aug 29 2017 22:57:44 GMT-0400 (EDT), Road_Intersection, 60
, , , , , , , , , , , , right, 1, 0.768999999999977, , , , , , , , , , , , navFarRight.jpg, Go left. , right, , , , , navFarRight.jpg, Go left. , right, 0, 9, 9, 9, 23889243, Tue Aug 29 2017 22:57:44 GMT-0400 (EDT), Road_Intersection, 60
, , , , , , , , , , , , right, 1, 0.7019999999999982, , , , , , , , , , , , navNearLeft.jpg, Go right. , right, , , , , navNearLeft.jpg, Go right. , right, 0, 10, 10, 14, 23889243, Tue Aug 29 2017 22:57:44 GMT-0400 (EDT), Road_Intersection, 60
, , , , , , , , , , , , right, 1, 0.7680000000000007, , , , , , , , , , , , navNearRight.jpg, Go right. , right, , , , , navNearRight.jpg, Go right. , right, 0, 11, 11, 15, 23889243, Tue Aug 29 2017 22:57:44 GMT-0400 (EDT), Road_Intersection, 60
, , , , , , , , , , , , right, 1, 0.7349999999999852, , , , , , , , , , , , navNearLeft.jpg, Go away. , right, , , , , navNearLeft.jpg, Go away. , right, 0, 12, 12, 6, 23889243, Tue Aug 29 2017 22:57:44 GMT-0400 (EDT), Road_Intersection, 60
, , , , , , , , , , , , right, 1, 0.6700000000000159, , , , , , , , , , , , navFarLeft.jpg, Go away. , right, , , , , navFarLeft.jpg, Go away. , right, 0, 13, 13, 4, 23889243, Tue Aug 29 2017 22:57:44 GMT-0400 (EDT), Road_Intersection, 60
, , , , , , , , , , , , right, 1, 1.8880000000000052, , , , , , , , , , , , navFarLeft.jpg, Go left. , right, , , , , navFarLeft.jpg, Go left. , right, 0, 14, 14, 8, 23889243, Tue Aug 29 2017 22:57:44 GMT-0400 (EDT), Road_Intersection, 60
, , , , , , , , , , , , left, 1, 0.5010000000000332, , , , , , , , , , , , navNearRight.jpg, Go left. , left, , , , , navNearRight.jpg, Go left. , left, 0, 15, 15, 11, 23889243, Tue Aug 29 2017 22:57:44 GMT-0400 (EDT), Road_Intersection, 60
, , , , , , , , , , , , right, 1, 0.7690000000000055, , , , , , , , , , , , navFarLeft.jpg, Go left. , right, , , , , navFarLeft.jpg, Go left. , right, 1, 0, 16, 8, 23889243, Tue Aug 29 2017 22:57:44 GMT-0400 (EDT), Road_Intersection, 60
, , , , , , , , , , , , left, 1, 0.7180000000000177, , , , , , , , , , , , navFarRight.jpg, Go right. , left, , , , , navFarRight.jpg, Go right. , left, 1, 1, 17, 13, 23889243, Tue Aug 29 2017 22:57:44 GMT-0400 (EDT), Road_Intersection, 60
, , , , , , , , , , , , right, 1, 0.9690000000000509, , , , , , , , , , , , navFarRight.jpg, Go left. , right, , , , , navFarRight.jpg, Go left. , right, 1, 2, 18, 9, 23889243, Tue Aug 29 2017 22:57:44 GMT-0400 (EDT), Road_Intersection, 60
, , , , , , , , , , , , left, 0, 0.785000000000025, , , , , , , , , , , , navFarRight.jpg, Go home., right, , , , , navFarRight.jpg, Go home., right, 1, 3, 19, 1, 23889243, Tue Aug 29 2017 22:57:44 GMT-0400 (EDT), Road_Intersection, 60
, , , , , , , , , , , , left, 1, 1.504000000000019, , , , , , , , , , , , navNearRight.jpg, Go away. , left, , , , , navNearRight.jpg, Go away. , left, 1, 4, 20, 7, 23889243, Tue Aug 29 2017 22:57:44 GMT-0400 (EDT), Road_Intersection, 60
, , , , , , , , , , , , left, 1, 2.2729999999999677, , , , , , , , , , , , navFarLeft.jpg, Go right. , left, , , , , navFarLeft.jpg, Go right. , left, 1, 5, 21, 12, 23889243, Tue Aug 29 2017 22:57:44 GMT-0400 (EDT), Road_Intersection, 60
, , , , , , , , , , , , right, 1, 1.4710000000000036, , , , , , , , , , , , navNearRight.jpg, Go home., right, , , , , navNearRight.jpg, Go home., right, 1, 6, 22, 3, 23889243, Tue Aug 29 2017 22:57:44 GMT-0400 (EDT), Road_Intersection, 60
, , , , , , , , , , , , left, 1, 1.2029999999999745, , , , , , , , , , , , navNearLeft.jpg, Go left. , left, , , , , navNearLeft.jpg, Go left. , left, 1, 7, 23, 10, 23889243, Tue Aug 29 2017 22:57:44 GMT-0400 (EDT), Road_Intersection, 60
, , , , , , , , , , , , right, 1, 1.2080000000000268, , , , , , , , , , , , navNearRight.jpg, Go right. , right, , , , , navNearRight.jpg, Go right. , right, 1, 8, 24, 15, 23889243, Tue Aug 29 2017 22:57:44 GMT-0400 (EDT), Road_Intersection, 60
, , , , , , , , , , , , left, 1, 0.9190000000000396, , , , , , , , , , , , navNearLeft.jpg, Go home., left, , , , , navNearLeft.jpg, Go home., left, 1, 9, 25, 2, 23889243, Tue Aug 29 2017 22:57:44 GMT-0400 (EDT), Road_Intersection, 60
, , , , , , , , , , , , left, 1, 0.7350000000000136, , , , , , , , , , , , navFarLeft.jpg, Go home., left, , , , , navFarLeft.jpg, Go home., left, 1, 10, 26, 0, 23889243, Tue Aug 29 2017 22:57:44 GMT-0400 (EDT), Road_Intersection, 60
, , , , , , , , , , , , left, 1, 1.2040000000000077, , , , , , , , , , , , navFarRight.jpg, Go away. , left, , , , , navFarRight.jpg, Go away. , left, 1, 11, 27, 5, 23889243, Tue Aug 29 2017 22:57:44 GMT-0400 (EDT), Road_Intersection, 60
, , , , , , , , , , , , right, 1, 1.170000000000016, , , , , , , , , , , , navNearLeft.jpg, Go right. , right, , , , , navNearLeft.jpg, Go right. , right, 1, 12, 28, 14, 23889243, Tue Aug 29 2017 22:57:44 GMT-0400 (EDT), Road_Intersection, 60
, , , , , , , , , , , , left, 1, 0.6019999999999754, , , , , , , , , , , , navNearRight.jpg, Go left. , left, , , , , navNearRight.jpg, Go left. , left, 1, 13, 29, 11, 23889243, Tue Aug 29 2017 22:57:44 GMT-0400 (EDT), Road_Intersection, 60
, , , , , , , , , , , , right, 1, 0.8519999999999754, , , , , , , , , , , , navFarLeft.jpg, Go away. , right, , , , , navFarLeft.jpg, Go away. , right, 1, 14, 30, 4, 23889243, Tue Aug 29 2017 22:57:44 GMT-0400 (EDT), Road_Intersection, 60
, , , , , , , , , , , , right, 1, 0.6020000000000323, , , , , , , , , , , , navNearLeft.jpg, Go away. , right, , , , , navNearLeft.jpg, Go away. , right, 1, 15, 31, 6, 23889243, Tue Aug 29 2017 22:57:44 GMT-0400 (EDT), Road_Intersection, 60
, , , , , , , , , , , , right, 1, 0.5339999999999918, , , , , , , , , , , , navNearRight.jpg, Go right. , right, , , , , navNearRight.jpg, Go right. , right, 2, 0, 32, 15, 23889243, Tue Aug 29 2017 22:57:44 GMT-0400 (EDT), Road_Intersection, 60
, , , , , , , , , , , , right, 1, 0.5179999999999723, , , , , , , , , , , , navNearLeft.jpg, Go right. , right, , , , , navNearLeft.jpg, Go right. , right, 2, 1, 33, 14, 23889243, Tue Aug 29 2017 22:57:44 GMT-0400 (EDT), Road_Intersection, 60
, , , , , , , , , , , , right, 1, 0.8020000000000209, , , , , , , , , , , , navFarLeft.jpg, Go away. , right, , , , , navFarLeft.jpg, Go away. , right, 2, 2, 34, 4, 23889243, Tue Aug 29 2017 22:57:44 GMT-0400 (EDT), Road_Intersection, 60
, , , , , , , , , , , , left, 1, 0.6859999999999786, , , , , , , , , , , , navFarLeft.jpg, Go home., left, , , , , navFarLeft.jpg, Go home., left, 2, 3, 35, 0, 23889243, Tue Aug 29 2017 22:57:44 GMT-0400 (EDT), Road_Intersection, 60
, , , , , , , , , , , , right, 1, 0.7180000000000177, , , , , , , , , , , , navNearRight.jpg, Go home., right, , , , , navNearRight.jpg, Go home., right, 2, 4, 36, 3, 23889243, Tue Aug 29 2017 22:57:44 GMT-0400 (EDT), Road_Intersection, 60
, , , , , , , , , , , , left, 1, 0.7019999999999982, , , , , , , , , , , , navNearRight.jpg, Go away. , left, , , , , navNearRight.jpg, Go away. , left, 2, 5, 37, 7, 23889243, Tue Aug 29 2017 22:57:44 GMT-0400 (EDT), Road_Intersection, 60
, , , , , , , , , , , , left, 1, 0.8179999999999836, , , , , , , , , , , , navFarRight.jpg, Go away. , left, , , , , navFarRight.jpg, Go away. , left, 2, 6, 38, 5, 23889243, Tue Aug 29 2017 22:57:44 GMT-0400 (EDT), Road_Intersection, 60
, , , , , , , , , , , , right, 1, 0.7690000000000055, , , , , , , , , , , , navFarRight.jpg, Go home., right, , , , , navFarRight.jpg, Go home., right, 2, 7, 39, 1, 23889243, Tue Aug 29 2017 22:57:44 GMT-0400 (EDT), Road_Intersection, 60
, , , , , , , , , , , , left, 1, 0.5680000000000405, , , , , , , , , , , , navNearRight.jpg, Go left. , left, , , , , navNearRight.jpg, Go left. , left, 2, 8, 40, 11, 23889243, Tue Aug 29 2017 22:57:44 GMT-0400 (EDT), Road_Intersection, 60
, , , , , , , , , , , , left, 1, 0.7189999999999941, , , , , , , , , , , , navFarRight.jpg, Go right. , left, , , , , navFarRight.jpg, Go right. , left, 2, 9, 41, 13, 23889243, Tue Aug 29 2017 22:57:44 GMT-0400 (EDT), Road_Intersection, 60
, , , , , , , , , , , , right, 1, 0.9530000000000314, , , , , , , , , , , , navNearLeft.jpg, Go away. , right, , , , , navNearLeft.jpg, Go away. , right, 2, 10, 42, 6, 23889243, Tue Aug 29 2017 22:57:44 GMT-0400 (EDT), Road_Intersection, 60
, , , , , , , , , , , , left, 0, 0.9519999999999982, , , , , , , , , , , , navFarLeft.jpg, Go left. , right, , , , , navFarLeft.jpg, Go left. , right, 2, 11, 43, 8, 23889243, Tue Aug 29 2017 22:57:44 GMT-0400 (EDT), Road_Intersection, 60
, , , , , , , , , , , , left, 1, 1.3029999999999973, , , , , , , , , , , , navFarLeft.jpg, Go right. , left, , , , , navFarLeft.jpg, Go right. , left, 2, 12, 44, 12, 23889243, Tue Aug 29 2017 22:57:44 GMT-0400 (EDT), Road_Intersection, 60
, , , , , , , , , , , , right, 1, 0.8020000000000209, , , , , , , , , , , , navFarRight.jpg, Go left. , right, , , , , navFarRight.jpg, Go left. , right, 2, 13, 45, 9, 23889243, Tue Aug 29 2017 22:57:44 GMT-0400 (EDT), Road_Intersection, 60
, , , , , , , , , , , , left, 1, 0.6189999999999714, , , , , , , , , , , , navNearLeft.jpg, Go left. , left, , , , , navNearLeft.jpg, Go left. , left, 2, 14, 46, 10, 23889243, Tue Aug 29 2017 22:57:44 GMT-0400 (EDT), Road_Intersection, 60
, , , , , , , , , , , , left, 1, 0.9860000000000468, , , , , , , , , , , , navNearLeft.jpg, Go home., left, , , , , navNearLeft.jpg, Go home., left, 2, 15, 47, 2, 23889243, Tue Aug 29 2017 22:57:44 GMT-0400 (EDT), Road_Intersection, 60
, , , , , , , , , , , , left, 1, 0.8020000000000209, , , , , , , , , , , , navFarLeft.jpg, Go home., left, , , , , navFarLeft.jpg, Go home., left, 3, 0, 48, 0, 23889243, Tue Aug 29 2017 22:57:44 GMT-0400 (EDT), Road_Intersection, 60
, , , , , , , , , , , , left, 1, 1.336999999999989, , , , , , , , , , , , navNearRight.jpg, Go away. , left, , , , , navNearRight.jpg, Go away. , left, 3, 1, 49, 7, 23889243, Tue Aug 29 2017 22:57:44 GMT-0400 (EDT), Road_Intersection, 60
, , , , , , , , , , , , right, 1, 1.0529999999999973, , , , , , , , , , , , navNearLeft.jpg, Go right. , right, , , , , navNearLeft.jpg, Go right. , right, 3, 2, 50, 14, 23889243, Tue Aug 29 2017 22:57:44 GMT-0400 (EDT), Road_Intersection, 60
, , , , , , , , , , , , right, 1, 2.0889999999999986, , , , , , , , , , , , navFarRight.jpg, Go left. , right, , , , , navFarRight.jpg, Go left. , right, 3, 3, 51, 9, 23889243, Tue Aug 29 2017 22:57:44 GMT-0400 (EDT), Road_Intersection, 60
, , , , , , , , , , , , right, 0, 1.136000000000024, , , , , , , , , , , , navFarRight.jpg, Go away. , left, , , , , navFarRight.jpg, Go away. , left, 3, 4, 52, 5, 23889243, Tue Aug 29 2017 22:57:44 GMT-0400 (EDT), Road_Intersection, 60
, , , , , , , , , , , , right, 1, 1.3199999999999932, , , , , , , , , , , , navNearRight.jpg, Go home., right, , , , , navNearRight.jpg, Go home., right, 3, 5, 53, 3, 23889243, Tue Aug 29 2017 22:57:44 GMT-0400 (EDT), Road_Intersection, 60
, , , , , , , , , , , , left, 1, 1.705000000000041, , , , , , , , , , , , navFarLeft.jpg, Go right. , left, , , , , navFarLeft.jpg, Go right. , left, 3, 6, 54, 12, 23889243, Tue Aug 29 2017 22:57:44 GMT-0400 (EDT), Road_Intersection, 60
, , , , , , , , , , , , right, 1, 0.9689999999999941, , , , , , , , , , , , navNearRight.jpg, Go right. , right, , , , , navNearRight.jpg, Go right. , right, 3, 7, 55, 15, 23889243, Tue Aug 29 2017 22:57:44 GMT-0400 (EDT), Road_Intersection, 60
, , , , , , , , , , , , right, 1, 0.9700000000000273, , , , , , , , , , , , navFarRight.jpg, Go home., right, , , , , navFarRight.jpg, Go home., right, 3, 8, 56, 1, 23889243, Tue Aug 29 2017 22:57:44 GMT-0400 (EDT), Road_Intersection, 60
, , , , , , , , , , , , left, 1, 0.7019999999999982, , , , , , , , , , , , navNearLeft.jpg, Go left. , left, , , , , navNearLeft.jpg, Go left. , left, 3, 9, 57, 10, 23889243, Tue Aug 29 2017 22:57:44 GMT-0400 (EDT), Road_Intersection, 60
, , , , , , , , , , , , left, 1, 1.0360000000000014, , , , , , , , , , , , navNearLeft.jpg, Go home., left, , , , , navNearLeft.jpg, Go home., left, 3, 10, 58, 2, 23889243, Tue Aug 29 2017 22:57:44 GMT-0400 (EDT), Road_Intersection, 60
, , , , , , , , , , , , left, 1, 0.6680000000000064, , , , , , , , , , , , navNearRight.jpg, Go left. , left, , , , , navNearRight.jpg, Go left. , left, 3, 11, 59, 11, 23889243, Tue Aug 29 2017 22:57:44 GMT-0400 (EDT), Road_Intersection, 60
, , , , , , , , , , , , right, 1, 1.8220000000000027, , , , , , , , , , , , navFarLeft.jpg, Go away. , right, , , , , navFarLeft.jpg, Go away. , right, 3, 12, 60, 4, 23889243, Tue Aug 29 2017 22:57:44 GMT-0400 (EDT), Road_Intersection, 60
, , , , , , , , , , , , left, 1, 1.1239999999999668, , , , , , , , , , , , navFarRight.jpg, Go right. , left, , , , , navFarRight.jpg, Go right. , left, 3, 13, 61, 13, 23889243, Tue Aug 29 2017 22:57:44 GMT-0400 (EDT), Road_Intersection, 60
, , , , , , , , , , , , right, 1, 1.1030000000000086, , , , , , , , , , , , navNearLeft.jpg, Go away. , right, , , , , navNearLeft.jpg, Go away. , right, 3, 14, 62, 6, 23889243, Tue Aug 29 2017 22:57:44 GMT-0400 (EDT), Road_Intersection, 60
, , , , , , , , , , , , right, 1, 1.3530000000000086, , , , , , , , , , , , navFarLeft.jpg, Go left. , right, , , , , navFarLeft.jpg, Go left. , right, 3, 15, 63, 8, 23889243, Tue Aug 29 2017 22:57:44 GMT-0400 (EDT), Road_Intersection, 60
