Continue.keys, Continue.rt, instructions_response.keys, instructions_response.rt, repeat_response.keys, repeat_response.rt, key_resp_5.keys, key_resp_5.rt, key_resp_2.keys, key_resp_2.rt, key_resp_4.keys, key_resp_4.rt, Trials_response.keys, Trials_response.corr, Trials_response.rt, Block_Continue.keys, Block_Continue.rt, Image, instructions_1_loop.thisRepN, instructions_1_loop.thisTrialN, instructions_1_loop.thisN, instructions_1_loop.thisIndex, instructions_2_repeat.thisRepN, instructions_2_repeat.thisTrialN, instructions_2_repeat.thisN, instructions_2_repeat.thisIndex, stim, prompt, answer, trials_2.thisRepN, trials_2.thisTrialN, trials_2.thisN, trials_2.thisIndex, stim, prompt, answer, trials.thisRepN, trials.thisTrialN, trials.thisN, trials.thisIndex, participant, date, expName, frameRate
space, 215.17800000000003, space, 3.3969999999999914, , , , , , , , , , , , , , Slide15.JPG, 0, 0, 0, 0, , , , , , , , , , , , , , , , , , , 3880734, Wed Nov 15 2017 16:30:30 GMT-0500 (Eastern Standard Time), Road_Intersection, 60
, , space, 8.83499999999998, , , , , , , , , , , , , , Slide16.JPG, 0, 1, 1, 1, , , , , , , , , , , , , , , , , , , 3880734, Wed Nov 15 2017 16:30:30 GMT-0500 (Eastern Standard Time), Road_Intersection, 60
, , space, 3.930000000000007, , , , , , , , , , , , , , Slide17.JPG, 0, 2, 2, 2, , , , , , , , , , , , , , , , , , , 3880734, Wed Nov 15 2017 16:30:30 GMT-0500 (Eastern Standard Time), Road_Intersection, 60
, , space, 2.214999999999975, , , , , , , , , , , , , , Slide18.JPG, 0, 3, 3, 3, , , , , , , , , , , , , , , , , , , 3880734, Wed Nov 15 2017 16:30:30 GMT-0500 (Eastern Standard Time), Road_Intersection, 60
, , space, 16.47399999999999, , , , , , , , , , , , , , Slide19.JPG, 0, 4, 4, 4, , , , , , , , , , , , , , , , , , , 3880734, Wed Nov 15 2017 16:30:30 GMT-0500 (Eastern Standard Time), Road_Intersection, 60
, , space, 7.6299999999999955, , , , , , , , , , , , , , Slide20.JPG, 0, 5, 5, 5, , , , , , , , , , , , , , , , , , , 3880734, Wed Nov 15 2017 16:30:30 GMT-0500 (Eastern Standard Time), Road_Intersection, 60
, , space, 3.7799999999999727, , , , , , , , , , , , , , Slide21.JPG, 0, 6, 6, 6, , , , , , , , , , , , , , , , , , , 3880734, Wed Nov 15 2017 16:30:30 GMT-0500 (Eastern Standard Time), Road_Intersection, 60
, , space, 3.5190000000000055, , , , , , , , , , , , , , Slide22.JPG, 0, 7, 7, 7, , , , , , , , , , , , , , , , , , , 3880734, Wed Nov 15 2017 16:30:30 GMT-0500 (Eastern Standard Time), Road_Intersection, 60
, , space, 40.77699999999999, , , , , , , , , , , , , , Slide23.JPG, 0, 8, 8, 8, , , , , , , , , , , , , , , , , , , 3880734, Wed Nov 15 2017 16:30:30 GMT-0500 (Eastern Standard Time), Road_Intersection, 60
, , space, 3.6129999999999995, , , , , , , , , , , , , , Slide24.JPG, 0, 9, 9, 9, , , , , , , , , , , , , , , , , , , 3880734, Wed Nov 15 2017 16:30:30 GMT-0500 (Eastern Standard Time), Road_Intersection, 60
, , space, 347.197, , , , , , , , , , , , , , Slide25.JPG, 0, 10, 10, 10, , , , , , , , , , , , , , , , , , , 3880734, Wed Nov 15 2017 16:30:30 GMT-0500 (Eastern Standard Time), Road_Intersection, 60
, , space, 2.5990000000000464, , , , , , , , , , , , , , Slide26.JPG, 0, 11, 11, 11, , , , , , , , , , , , , , , , , , , 3880734, Wed Nov 15 2017 16:30:30 GMT-0500 (Eastern Standard Time), Road_Intersection, 60
, , space, 772.0849999999999, , , , , , , , , , , , , , Slide27.JPG, 0, 12, 12, 12, , , , , , , , , , , , , , , , , , , 3880734, Wed Nov 15 2017 16:30:30 GMT-0500 (Eastern Standard Time), Road_Intersection, 60
, , space, 2.2409999999999854, , , , , , , , , , , , , , Slide28.JPG, 0, 13, 13, 13, , , , , , , , , , , , , , , , , , , 3880734, Wed Nov 15 2017 16:30:30 GMT-0500 (Eastern Standard Time), Road_Intersection, 60
, , , , 0, 274.318, space, 79.63599999999997, left, 6.927000000000135, , , , , , , , , , , , , , , , , navFarLeft.jpg, Go right., left, 0, 0, 0, 0, navFarLeft.jpg, Go right., left, , , , , 3880734, Wed Nov 15 2017 16:30:30 GMT-0500 (Eastern Standard Time), Road_Intersection, 60
, , , , , , , , right, 1.8309999999999036, , , , , , , , , , , , , , , , , navNearLeft.jpg, Go away., right, 0, 1, 1, 1, navNearLeft.jpg, Go away., right, , , , , 3880734, Wed Nov 15 2017 16:30:30 GMT-0500 (Eastern Standard Time), Road_Intersection, 60
, , , , , , , , right, 4.261999999999944, , , , , , , , , , , , , , , , , navFarRight.jpg, Go left., right, 0, 2, 2, 2, navFarRight.jpg, Go left., right, , , , , 3880734, Wed Nov 15 2017 16:30:30 GMT-0500 (Eastern Standard Time), Road_Intersection, 60
, , , , , , , , right, 1.7959999999998217, , , , , , , , , , , , , , , , , navNearRight.jpg, Go home. , right, 0, 3, 3, 3, navNearRight.jpg, Go home. , right, , , , , 3880734, Wed Nov 15 2017 16:30:30 GMT-0500 (Eastern Standard Time), Road_Intersection, 60
, , , , , , , , left, 1.43100000000004, , , , , , , , , , , , , , , , , navNearLeft.jpg, Go left., left, 0, 4, 4, 4, navNearLeft.jpg, Go left., left, , , , , 3880734, Wed Nov 15 2017 16:30:30 GMT-0500 (Eastern Standard Time), Road_Intersection, 60
, , , , , , , , right, 0.9640000000001692, , , , , , , , , , , , , , , , , navNearRight.jpg, Go home., right, 0, 5, 5, 5, navNearRight.jpg, Go home., right, , , , , 3880734, Wed Nov 15 2017 16:30:30 GMT-0500 (Eastern Standard Time), Road_Intersection, 60
, , , , , , , , right, 1.2180000000000746, , , , , , , , , , , , , , , , , navNearLeft.jpg, Go away., right, 0, 6, 6, 6, navNearLeft.jpg, Go away., right, , , , , 3880734, Wed Nov 15 2017 16:30:30 GMT-0500 (Eastern Standard Time), Road_Intersection, 60
, , , , , , , , left, 2.8299999999999272, , , , , , , , , , , , , , , , , navFarLeft.jpg, Go right., left, 0, 7, 7, 7, navFarLeft.jpg, Go right., left, , , , , 3880734, Wed Nov 15 2017 16:30:30 GMT-0500 (Eastern Standard Time), Road_Intersection, 60
, , , , , , , , , , space, 13401.17, right, 1, 2.1310000000012224, , , , , , , , , , , , navFarRight.jpg, Go home., right, , , , , navFarRight.jpg, Go home., right, 0, 0, 0, 1, 3880734, Wed Nov 15 2017 16:30:30 GMT-0500 (Eastern Standard Time), Road_Intersection, 60
, , , , , , , , , , , , right, 1, 1.4160000000010768, , , , , , , , , , , , navNearLeft.jpg, Go right. , right, , , , , navNearLeft.jpg, Go right. , right, 0, 1, 1, 14, 3880734, Wed Nov 15 2017 16:30:30 GMT-0500 (Eastern Standard Time), Road_Intersection, 60
, , , , , , , , , , , , left, 0, 0.7510000000002037, , , , , , , , , , , , navFarLeft.jpg, Go left. , right, , , , , navFarLeft.jpg, Go left. , right, 0, 2, 2, 8, 3880734, Wed Nov 15 2017 16:30:30 GMT-0500 (Eastern Standard Time), Road_Intersection, 60
, , , , , , , , , , , , right, 1, 4.533000000001266, , , , , , , , , , , , navFarRight.jpg, Go left. , right, , , , , navFarRight.jpg, Go left. , right, 0, 3, 3, 9, 3880734, Wed Nov 15 2017 16:30:30 GMT-0500 (Eastern Standard Time), Road_Intersection, 60
, , , , , , , , , , , , right, 1, 1.6480000000010477, , , , , , , , , , , , navNearLeft.jpg, Go away. , right, , , , , navNearLeft.jpg, Go away. , right, 0, 4, 4, 6, 3880734, Wed Nov 15 2017 16:30:30 GMT-0500 (Eastern Standard Time), Road_Intersection, 60
, , , , , , , , , , , , left, 1, 1.59900000000016, , , , , , , , , , , , navFarRight.jpg, Go away. , left, , , , , navFarRight.jpg, Go away. , left, 0, 5, 5, 5, 3880734, Wed Nov 15 2017 16:30:30 GMT-0500 (Eastern Standard Time), Road_Intersection, 60
, , , , , , , , , , , , left, 1, 3.798000000000684, , , , , , , , , , , , navFarLeft.jpg, Go right. , left, , , , , navFarLeft.jpg, Go right. , left, 0, 6, 6, 12, 3880734, Wed Nov 15 2017 16:30:30 GMT-0500 (Eastern Standard Time), Road_Intersection, 60
, , , , , , , , , , , , right, 1, 12.273999999999432, , , , , , , , , , , , navNearRight.jpg, Go right. , right, , , , , navNearRight.jpg, Go right. , right, 0, 7, 7, 15, 3880734, Wed Nov 15 2017 16:30:30 GMT-0500 (Eastern Standard Time), Road_Intersection, 60
, , , , , , , , , , , , left, 1, 1.0650000000005093, , , , , , , , , , , , navNearLeft.jpg, Go left. , left, , , , , navNearLeft.jpg, Go left. , left, 0, 8, 8, 10, 3880734, Wed Nov 15 2017 16:30:30 GMT-0500 (Eastern Standard Time), Road_Intersection, 60
, , , , , , , , , , , , right, 1, 0.9979999999995925, , , , , , , , , , , , navNearRight.jpg, Go home., right, , , , , navNearRight.jpg, Go home., right, 0, 9, 9, 3, 3880734, Wed Nov 15 2017 16:30:30 GMT-0500 (Eastern Standard Time), Road_Intersection, 60
, , , , , , , , , , , , left, 1, 1.1670000000012806, , , , , , , , , , , , navFarLeft.jpg, Go home., left, , , , , navFarLeft.jpg, Go home., left, 0, 10, 10, 0, 3880734, Wed Nov 15 2017 16:30:30 GMT-0500 (Eastern Standard Time), Road_Intersection, 60
, , , , , , , , , , , , left, 1, 1.1489999999994325, , , , , , , , , , , , navNearRight.jpg, Go left. , left, , , , , navNearRight.jpg, Go left. , left, 0, 11, 11, 11, 3880734, Wed Nov 15 2017 16:30:30 GMT-0500 (Eastern Standard Time), Road_Intersection, 60
, , , , , , , , , , , , right, 0, 1.8829999999998108, , , , , , , , , , , , navFarRight.jpg, Go right. , left, , , , , navFarRight.jpg, Go right. , left, 0, 12, 12, 13, 3880734, Wed Nov 15 2017 16:30:30 GMT-0500 (Eastern Standard Time), Road_Intersection, 60
, , , , , , , , , , , , left, 1, 0.8670000000001892, , , , , , , , , , , , navNearLeft.jpg, Go home., left, , , , , navNearLeft.jpg, Go home., left, 0, 13, 13, 2, 3880734, Wed Nov 15 2017 16:30:30 GMT-0500 (Eastern Standard Time), Road_Intersection, 60
, , , , , , , , , , , , left, 1, 0.8490000000001601, , , , , , , , , , , , navNearRight.jpg, Go away. , left, , , , , navNearRight.jpg, Go away. , left, 0, 14, 14, 7, 3880734, Wed Nov 15 2017 16:30:30 GMT-0500 (Eastern Standard Time), Road_Intersection, 60
, , , , , , , , , , , , right, 1, 1.1159999999999854, , , , , , , , , , , , navFarLeft.jpg, Go away. , right, , , , , navFarLeft.jpg, Go away. , right, 0, 15, 15, 4, 3880734, Wed Nov 15 2017 16:30:30 GMT-0500 (Eastern Standard Time), Road_Intersection, 60
, , , , , , , , , , , , right, 1, 2.081000000000131, , , , , , , , , , , , navFarRight.jpg, Go left. , right, , , , , navFarRight.jpg, Go left. , right, 1, 0, 16, 9, 3880734, Wed Nov 15 2017 16:30:30 GMT-0500 (Eastern Standard Time), Road_Intersection, 60
, , , , , , , , , , , , right, 1, 0.9159999999992579, , , , , , , , , , , , navNearRight.jpg, Go home., right, , , , , navNearRight.jpg, Go home., right, 1, 1, 17, 3, 3880734, Wed Nov 15 2017 16:30:30 GMT-0500 (Eastern Standard Time), Road_Intersection, 60
, , , , , , , , , , , , right, 1, 1.4160000000010768, , , , , , , , , , , , navFarLeft.jpg, Go away. , right, , , , , navFarLeft.jpg, Go away. , right, 1, 2, 18, 4, 3880734, Wed Nov 15 2017 16:30:30 GMT-0500 (Eastern Standard Time), Road_Intersection, 60
, , , , , , , , , , , , left, 1, 0.8490000000001601, , , , , , , , , , , , navNearLeft.jpg, Go home., left, , , , , navNearLeft.jpg, Go home., left, 1, 3, 19, 2, 3880734, Wed Nov 15 2017 16:30:30 GMT-0500 (Eastern Standard Time), Road_Intersection, 60
, , , , , , , , , , , , left, 1, 1.9830000000001746, , , , , , , , , , , , navNearLeft.jpg, Go left. , left, , , , , navNearLeft.jpg, Go left. , left, 1, 4, 20, 10, 3880734, Wed Nov 15 2017 16:30:30 GMT-0500 (Eastern Standard Time), Road_Intersection, 60
, , , , , , , , , , , , right, 1, 0.9159999999992579, , , , , , , , , , , , navNearLeft.jpg, Go away. , right, , , , , navNearLeft.jpg, Go away. , right, 1, 5, 21, 6, 3880734, Wed Nov 15 2017 16:30:30 GMT-0500 (Eastern Standard Time), Road_Intersection, 60
, , , , , , , , , , , , right, 0, 1.75, , , , , , , , , , , , navFarLeft.jpg, Go right. , left, , , , , navFarLeft.jpg, Go right. , left, 1, 6, 22, 12, 3880734, Wed Nov 15 2017 16:30:30 GMT-0500 (Eastern Standard Time), Road_Intersection, 60
, , , , , , , , , , , , right, 1, 0.8989999999994325, , , , , , , , , , , , navNearRight.jpg, Go right. , right, , , , , navNearRight.jpg, Go right. , right, 1, 7, 23, 15, 3880734, Wed Nov 15 2017 16:30:30 GMT-0500 (Eastern Standard Time), Road_Intersection, 60
, , , , , , , , , , , , left, 1, 1.015000000001237, , , , , , , , , , , , navNearRight.jpg, Go left. , left, , , , , navNearRight.jpg, Go left. , left, 1, 8, 24, 11, 3880734, Wed Nov 15 2017 16:30:30 GMT-0500 (Eastern Standard Time), Road_Intersection, 60
, , , , , , , , , , , , left, 1, 1.183999999999287, , , , , , , , , , , , navFarRight.jpg, Go right. , left, , , , , navFarRight.jpg, Go right. , left, 1, 9, 25, 13, 3880734, Wed Nov 15 2017 16:30:30 GMT-0500 (Eastern Standard Time), Road_Intersection, 60
, , , , , , , , , , , , left, 1, 1.2659999999996217, , , , , , , , , , , , navFarRight.jpg, Go away. , left, , , , , navFarRight.jpg, Go away. , left, 1, 10, 26, 5, 3880734, Wed Nov 15 2017 16:30:30 GMT-0500 (Eastern Standard Time), Road_Intersection, 60
, , , , , , , , , , , , left, 1, 0.9330000000009022, , , , , , , , , , , , navNearRight.jpg, Go away. , left, , , , , navNearRight.jpg, Go away. , left, 1, 11, 27, 7, 3880734, Wed Nov 15 2017 16:30:30 GMT-0500 (Eastern Standard Time), Road_Intersection, 60
, , , , , , , , , , , , right, 1, 1.0820000000003347, , , , , , , , , , , , navNearLeft.jpg, Go right. , right, , , , , navNearLeft.jpg, Go right. , right, 1, 12, 28, 14, 3880734, Wed Nov 15 2017 16:30:30 GMT-0500 (Eastern Standard Time), Road_Intersection, 60
, , , , , , , , , , , , left, 1, 1.0820000000003347, , , , , , , , , , , , navFarLeft.jpg, Go home., left, , , , , navFarLeft.jpg, Go home., left, 1, 13, 29, 0, 3880734, Wed Nov 15 2017 16:30:30 GMT-0500 (Eastern Standard Time), Road_Intersection, 60
, , , , , , , , , , , , right, 1, 1.3150000000005093, , , , , , , , , , , , navFarRight.jpg, Go home., right, , , , , navFarRight.jpg, Go home., right, 1, 14, 30, 1, 3880734, Wed Nov 15 2017 16:30:30 GMT-0500 (Eastern Standard Time), Road_Intersection, 60
, , , , , , , , , , , , right, 1, 2.3320000000003347, , , , , , , , , , , , navFarLeft.jpg, Go left. , right, , , , , navFarLeft.jpg, Go left. , right, 1, 15, 31, 8, 3880734, Wed Nov 15 2017 16:30:30 GMT-0500 (Eastern Standard Time), Road_Intersection, 60
, , , , , , , , , , , , left, 1, 2.013999999999214, , , , , , , , , , , , navFarLeft.jpg, Go home., left, , , , , navFarLeft.jpg, Go home., left, 2, 0, 32, 0, 3880734, Wed Nov 15 2017 16:30:30 GMT-0500 (Eastern Standard Time), Road_Intersection, 60
, , , , , , , , , , , , right, 1, 0.9840000000003783, , , , , , , , , , , , navNearLeft.jpg, Go away. , right, , , , , navNearLeft.jpg, Go away. , right, 2, 1, 33, 6, 3880734, Wed Nov 15 2017 16:30:30 GMT-0500 (Eastern Standard Time), Road_Intersection, 60
, , , , , , , , , , , , left, 1, 0.8169999999990978, , , , , , , , , , , , navNearLeft.jpg, Go home., left, , , , , navNearLeft.jpg, Go home., left, 2, 2, 34, 2, 3880734, Wed Nov 15 2017 16:30:30 GMT-0500 (Eastern Standard Time), Road_Intersection, 60
, , , , , , , , , , , , right, 1, 0.7669999999998254, , , , , , , , , , , , navNearLeft.jpg, Go right. , right, , , , , navNearLeft.jpg, Go right. , right, 2, 3, 35, 14, 3880734, Wed Nov 15 2017 16:30:30 GMT-0500 (Eastern Standard Time), Road_Intersection, 60
, , , , , , , , , , , , left, 1, 1.6329999999998108, , , , , , , , , , , , navFarRight.jpg, Go right. , left, , , , , navFarRight.jpg, Go right. , left, 2, 4, 36, 13, 3880734, Wed Nov 15 2017 16:30:30 GMT-0500 (Eastern Standard Time), Road_Intersection, 60
, , , , , , , , , , , , right, 1, 0.863999999999578, , , , , , , , , , , , navNearRight.jpg, Go home., right, , , , , navNearRight.jpg, Go home., right, 2, 5, 37, 3, 3880734, Wed Nov 15 2017 16:30:30 GMT-0500 (Eastern Standard Time), Road_Intersection, 60
, , , , , , , , , , , , left, 1, 1.6980000000003201, , , , , , , , , , , , navFarRight.jpg, Go away. , left, , , , , navFarRight.jpg, Go away. , left, 2, 6, 38, 5, 3880734, Wed Nov 15 2017 16:30:30 GMT-0500 (Eastern Standard Time), Road_Intersection, 60
, , , , , , , , , , , , left, 1, 0.8999999999996362, , , , , , , , , , , , navNearRight.jpg, Go away. , left, , , , , navNearRight.jpg, Go away. , left, 2, 7, 39, 7, 3880734, Wed Nov 15 2017 16:30:30 GMT-0500 (Eastern Standard Time), Road_Intersection, 60
, , , , , , , , , , , , right, 1, 1.6490000000012515, , , , , , , , , , , , navFarRight.jpg, Go home., right, , , , , navFarRight.jpg, Go home., right, 2, 8, 40, 1, 3880734, Wed Nov 15 2017 16:30:30 GMT-0500 (Eastern Standard Time), Road_Intersection, 60
, , , , , , , , , , , , right, 1, 0.9819999999999709, , , , , , , , , , , , navFarLeft.jpg, Go away. , right, , , , , navFarLeft.jpg, Go away. , right, 2, 9, 41, 4, 3880734, Wed Nov 15 2017 16:30:30 GMT-0500 (Eastern Standard Time), Road_Intersection, 60
, , , , , , , , , , , , left, 1, 0.8989999999994325, , , , , , , , , , , , navNearRight.jpg, Go left. , left, , , , , navNearRight.jpg, Go left. , left, 2, 10, 42, 11, 3880734, Wed Nov 15 2017 16:30:30 GMT-0500 (Eastern Standard Time), Road_Intersection, 60
, , , , , , , , , , , , right, 1, 1.3989999999994325, , , , , , , , , , , , navFarLeft.jpg, Go left. , right, , , , , navFarLeft.jpg, Go left. , right, 2, 11, 43, 8, 3880734, Wed Nov 15 2017 16:30:30 GMT-0500 (Eastern Standard Time), Road_Intersection, 60
, , , , , , , , , , , , left, 1, 1.3980000000010477, , , , , , , , , , , , navFarLeft.jpg, Go right. , left, , , , , navFarLeft.jpg, Go right. , left, 2, 12, 44, 12, 3880734, Wed Nov 15 2017 16:30:30 GMT-0500 (Eastern Standard Time), Road_Intersection, 60
, , , , , , , , , , , , right, 1, 0.7150000000001455, , , , , , , , , , , , navNearRight.jpg, Go right. , right, , , , , navNearRight.jpg, Go right. , right, 2, 13, 45, 15, 3880734, Wed Nov 15 2017 16:30:30 GMT-0500 (Eastern Standard Time), Road_Intersection, 60
, , , , , , , , , , , , right, 1, 2.463999999999942, , , , , , , , , , , , navFarRight.jpg, Go left. , right, , , , , navFarRight.jpg, Go left. , right, 2, 14, 46, 9, 3880734, Wed Nov 15 2017 16:30:30 GMT-0500 (Eastern Standard Time), Road_Intersection, 60
, , , , , , , , , , , , left, 1, 0.9490000000005239, , , , , , , , , , , , navNearLeft.jpg, Go left. , left, , , , , navNearLeft.jpg, Go left. , left, 2, 15, 47, 10, 3880734, Wed Nov 15 2017 16:30:30 GMT-0500 (Eastern Standard Time), Road_Intersection, 60
, , , , , , , , , , , , left, 1, 1.0470000000004802, , , , , , , , , , , , navNearLeft.jpg, Go left. , left, , , , , navNearLeft.jpg, Go left. , left, 3, 0, 48, 10, 3880734, Wed Nov 15 2017 16:30:30 GMT-0500 (Eastern Standard Time), Road_Intersection, 60
, , , , , , , , , , , , right, 1, 0.7640000000010332, , , , , , , , , , , , navNearRight.jpg, Go right. , right, , , , , navNearRight.jpg, Go right. , right, 3, 1, 49, 15, 3880734, Wed Nov 15 2017 16:30:30 GMT-0500 (Eastern Standard Time), Road_Intersection, 60
, , , , , , , , , , , , left, 1, 0.9660000000003492, , , , , , , , , , , , navFarRight.jpg, Go right. , left, , , , , navFarRight.jpg, Go right. , left, 3, 2, 50, 13, 3880734, Wed Nov 15 2017 16:30:30 GMT-0500 (Eastern Standard Time), Road_Intersection, 60
, , , , , , , , , , , , right, 1, 0.7489999999997963, , , , , , , , , , , , navNearRight.jpg, Go home., right, , , , , navNearRight.jpg, Go home., right, 3, 3, 51, 3, 3880734, Wed Nov 15 2017 16:30:30 GMT-0500 (Eastern Standard Time), Road_Intersection, 60
, , , , , , , , , , , , left, 1, 0.9660000000003492, , , , , , , , , , , , navFarLeft.jpg, Go home., left, , , , , navFarLeft.jpg, Go home., left, 3, 4, 52, 0, 3880734, Wed Nov 15 2017 16:30:30 GMT-0500 (Eastern Standard Time), Road_Intersection, 60
, , , , , , , , , , , , right, 1, 0.8179999999993015, , , , , , , , , , , , navNearLeft.jpg, Go away. , right, , , , , navNearLeft.jpg, Go away. , right, 3, 5, 53, 6, 3880734, Wed Nov 15 2017 16:30:30 GMT-0500 (Eastern Standard Time), Road_Intersection, 60
, , , , , , , , , , , , right, 1, 1.3370000000013533, , , , , , , , , , , , navFarRight.jpg, Go left. , right, , , , , navFarRight.jpg, Go left. , right, 3, 6, 54, 9, 3880734, Wed Nov 15 2017 16:30:30 GMT-0500 (Eastern Standard Time), Road_Intersection, 60
, , , , , , , , , , , , right, 1, 0.9819999999999709, , , , , , , , , , , , navFarRight.jpg, Go home., right, , , , , navFarRight.jpg, Go home., right, 3, 7, 55, 1, 3880734, Wed Nov 15 2017 16:30:30 GMT-0500 (Eastern Standard Time), Road_Intersection, 60
, , , , , , , , , , , , right, 1, 0.782999999999447, , , , , , , , , , , , navNearLeft.jpg, Go right. , right, , , , , navNearLeft.jpg, Go right. , right, 3, 8, 56, 14, 3880734, Wed Nov 15 2017 16:30:30 GMT-0500 (Eastern Standard Time), Road_Intersection, 60
, , , , , , , , , , , , right, 1, 1.1490000000012515, , , , , , , , , , , , navFarLeft.jpg, Go away. , right, , , , , navFarLeft.jpg, Go away. , right, 3, 9, 57, 4, 3880734, Wed Nov 15 2017 16:30:30 GMT-0500 (Eastern Standard Time), Road_Intersection, 60
, , , , , , , , , , , , left, 1, 2.2150000000001455, , , , , , , , , , , , navFarLeft.jpg, Go right. , left, , , , , navFarLeft.jpg, Go right. , left, 3, 10, 58, 12, 3880734, Wed Nov 15 2017 16:30:30 GMT-0500 (Eastern Standard Time), Road_Intersection, 60
, , , , , , , , , , , , right, 1, 1.1159999999999854, , , , , , , , , , , , navFarLeft.jpg, Go left. , right, , , , , navFarLeft.jpg, Go left. , right, 3, 11, 59, 8, 3880734, Wed Nov 15 2017 16:30:30 GMT-0500 (Eastern Standard Time), Road_Intersection, 60
, , , , , , , , , , , , left, 1, 0.7510000000002037, , , , , , , , , , , , navNearRight.jpg, Go away. , left, , , , , navNearRight.jpg, Go away. , left, 3, 12, 60, 7, 3880734, Wed Nov 15 2017 16:30:30 GMT-0500 (Eastern Standard Time), Road_Intersection, 60
, , , , , , , , , , , , left, 1, 0.8670000000001892, , , , , , , , , , , , navNearLeft.jpg, Go home., left, , , , , navNearLeft.jpg, Go home., left, 3, 13, 61, 2, 3880734, Wed Nov 15 2017 16:30:30 GMT-0500 (Eastern Standard Time), Road_Intersection, 60
, , , , , , , , , , , , left, 1, 1.467000000000553, , , , , , , , , , , , navNearRight.jpg, Go left. , left, , , , , navNearRight.jpg, Go left. , left, 3, 14, 62, 11, 3880734, Wed Nov 15 2017 16:30:30 GMT-0500 (Eastern Standard Time), Road_Intersection, 60
, , , , , , , , , , , , left, 1, 1.7489999999997963, , , , , , , , , , , , navFarRight.jpg, Go away. , left, , , , , navFarRight.jpg, Go away. , left, 3, 15, 63, 5, 3880734, Wed Nov 15 2017 16:30:30 GMT-0500 (Eastern Standard Time), Road_Intersection, 60
