Continue.keys, Continue.rt, instructions_response.keys, instructions_response.rt, repeat_response.keys, repeat_response.rt, key_resp_5.keys, key_resp_5.rt, key_resp_2.keys, key_resp_2.rt, key_resp_4.keys, key_resp_4.rt, Trials_response.keys, Trials_response.corr, Trials_response.rt, Block_Continue.keys, Block_Continue.rt, Image, instructions_1_loop.thisRepN, instructions_1_loop.thisTrialN, instructions_1_loop.thisN, instructions_1_loop.thisIndex, instructions_2_repeat.thisRepN, instructions_2_repeat.thisTrialN, instructions_2_repeat.thisN, instructions_2_repeat.thisIndex, stim, prompt, answer, trials_2.thisRepN, trials_2.thisTrialN, trials_2.thisN, trials_2.thisIndex, stim, prompt, answer, trials.thisRepN, trials.thisTrialN, trials.thisN, trials.thisIndex, participant, date, expName, frameRate
space, 0.9509999999999996, space, 5.167, , , , , , , , , , , , , , Slide15.JPG, 0, 0, 0, 0, , , , , , , , , , , , , , , , , , , 40321903, Mon Aug 21 2017 12:47:44 GMT-0400 (Eastern Daylight Time), Road_Intersection, 60
, , space, 7.883000000000001, , , , , , , , , , , , , , Slide16.JPG, 0, 1, 1, 1, , , , , , , , , , , , , , , , , , , 40321903, Mon Aug 21 2017 12:47:44 GMT-0400 (Eastern Daylight Time), Road_Intersection, 60
, , space, 9.065999999999995, , , , , , , , , , , , , , Slide17.JPG, 0, 2, 2, 2, , , , , , , , , , , , , , , , , , , 40321903, Mon Aug 21 2017 12:47:44 GMT-0400 (Eastern Daylight Time), Road_Intersection, 60
, , space, 4.515000000000001, , , , , , , , , , , , , , Slide18.JPG, 0, 3, 3, 3, , , , , , , , , , , , , , , , , , , 40321903, Mon Aug 21 2017 12:47:44 GMT-0400 (Eastern Daylight Time), Road_Intersection, 60
, , space, 14.950000000000003, , , , , , , , , , , , , , Slide19.JPG, 0, 4, 4, 4, , , , , , , , , , , , , , , , , , , 40321903, Mon Aug 21 2017 12:47:44 GMT-0400 (Eastern Daylight Time), Road_Intersection, 60
, , space, 9.749000000000002, , , , , , , , , , , , , , Slide20.JPG, 0, 5, 5, 5, , , , , , , , , , , , , , , , , , , 40321903, Mon Aug 21 2017 12:47:44 GMT-0400 (Eastern Daylight Time), Road_Intersection, 60
, , space, 7.8500000000000085, , , , , , , , , , , , , , Slide21.JPG, 0, 6, 6, 6, , , , , , , , , , , , , , , , , , , 40321903, Mon Aug 21 2017 12:47:44 GMT-0400 (Eastern Daylight Time), Road_Intersection, 60
, , space, 6.516000000000005, , , , , , , , , , , , , , Slide22.JPG, 0, 7, 7, 7, , , , , , , , , , , , , , , , , , , 40321903, Mon Aug 21 2017 12:47:44 GMT-0400 (Eastern Daylight Time), Road_Intersection, 60
, , space, 2.0829999999999984, , , , , , , , , , , , , , Slide23.JPG, 0, 8, 8, 8, , , , , , , , , , , , , , , , , , , 40321903, Mon Aug 21 2017 12:47:44 GMT-0400 (Eastern Daylight Time), Road_Intersection, 60
, , space, 4.399000000000001, , , , , , , , , , , , , , Slide24.JPG, 0, 9, 9, 9, , , , , , , , , , , , , , , , , , , 40321903, Mon Aug 21 2017 12:47:44 GMT-0400 (Eastern Daylight Time), Road_Intersection, 60
, , space, 1.7839999999999918, , , , , , , , , , , , , , Slide25.JPG, 0, 10, 10, 10, , , , , , , , , , , , , , , , , , , 40321903, Mon Aug 21 2017 12:47:44 GMT-0400 (Eastern Daylight Time), Road_Intersection, 60
, , space, 2.3670000000000044, , , , , , , , , , , , , , Slide26.JPG, 0, 11, 11, 11, , , , , , , , , , , , , , , , , , , 40321903, Mon Aug 21 2017 12:47:44 GMT-0400 (Eastern Daylight Time), Road_Intersection, 60
, , space, 0.7830000000000013, , , , , , , , , , , , , , Slide27.JPG, 0, 12, 12, 12, , , , , , , , , , , , , , , , , , , 40321903, Mon Aug 21 2017 12:47:44 GMT-0400 (Eastern Daylight Time), Road_Intersection, 60
, , space, 0.49900000000000944, , , , , , , , , , , , , , Slide28.JPG, 0, 13, 13, 13, , , , , , , , , , , , , , , , , , , 40321903, Mon Aug 21 2017 12:47:44 GMT-0400 (Eastern Daylight Time), Road_Intersection, 60
, , , , 0, 7.61699999999999, space, 2.3329999999999984, left, 1.5829999999999984, , , , , , , , , , , , , , , , , navFarLeft.jpg, Go right., left, 0, 0, 0, 0, navFarLeft.jpg, Go right., left, , , , , 40321903, Mon Aug 21 2017 12:47:44 GMT-0400 (Eastern Daylight Time), Road_Intersection, 60
, , , , , , , , right, 1.117999999999995, , , , , , , , , , , , , , , , , navNearLeft.jpg, Go away., right, 0, 1, 1, 1, navNearLeft.jpg, Go away., right, , , , , 40321903, Mon Aug 21 2017 12:47:44 GMT-0400 (Eastern Daylight Time), Road_Intersection, 60
, , , , , , , , right, 1.0660000000000025, , , , , , , , , , , , , , , , , navFarRight.jpg, Go left., right, 0, 2, 2, 2, navFarRight.jpg, Go left., right, , , , , 40321903, Mon Aug 21 2017 12:47:44 GMT-0400 (Eastern Daylight Time), Road_Intersection, 60
, , , , , , , , right, 0.6670000000000016, , , , , , , , , , , , , , , , , navNearRight.jpg, Go home. , right, 0, 3, 3, 3, navNearRight.jpg, Go home. , right, , , , , 40321903, Mon Aug 21 2017 12:47:44 GMT-0400 (Eastern Daylight Time), Road_Intersection, 60
, , , , , , , , right, 1.016999999999996, , , , , , , , , , , , , , , , , navNearLeft.jpg, Go left., left, 0, 4, 4, 4, navNearLeft.jpg, Go left., left, , , , , 40321903, Mon Aug 21 2017 12:47:44 GMT-0400 (Eastern Daylight Time), Road_Intersection, 60
, , , , , , , , right, 0.6490000000000009, , , , , , , , , , , , , , , , , navNearRight.jpg, Go home., right, 0, 5, 5, 5, navNearRight.jpg, Go home., right, , , , , 40321903, Mon Aug 21 2017 12:47:44 GMT-0400 (Eastern Daylight Time), Road_Intersection, 60
, , , , , , , , right, 0.8340000000000032, , , , , , , , , , , , , , , , , navNearLeft.jpg, Go away., right, 0, 6, 6, 6, navNearLeft.jpg, Go away., right, , , , , 40321903, Mon Aug 21 2017 12:47:44 GMT-0400 (Eastern Daylight Time), Road_Intersection, 60
, , , , , , , , left, 0.9490000000000123, , , , , , , , , , , , , , , , , navFarLeft.jpg, Go right., left, 0, 7, 7, 7, navFarLeft.jpg, Go right., left, , , , , 40321903, Mon Aug 21 2017 12:47:44 GMT-0400 (Eastern Daylight Time), Road_Intersection, 60
, , , , , , , , , , space, 0.7340000000000089, right, 0, 0.6670000000000016, , , , , , , , , , , , navFarLeft.jpg, Go home., left, , , , , navFarLeft.jpg, Go home., left, 0, 0, 0, 0, 40321903, Mon Aug 21 2017 12:47:44 GMT-0400 (Eastern Daylight Time), Road_Intersection, 60
, , , , , , , , , , , , right, 0, 1.5319999999999823, , , , , , , , , , , , navFarLeft.jpg, Go right. , left, , , , , navFarLeft.jpg, Go right. , left, 0, 1, 1, 12, 40321903, Mon Aug 21 2017 12:47:44 GMT-0400 (Eastern Daylight Time), Road_Intersection, 60
, , , , , , , , , , , , right, 1, 0.8160000000000025, , , , , , , , , , , , navNearRight.jpg, Go home., right, , , , , navNearRight.jpg, Go home., right, 0, 2, 2, 3, 40321903, Mon Aug 21 2017 12:47:44 GMT-0400 (Eastern Daylight Time), Road_Intersection, 60
, , , , , , , , , , , , right, 1, 0.9169999999999732, , , , , , , , , , , , navNearLeft.jpg, Go right. , right, , , , , navNearLeft.jpg, Go right. , right, 0, 3, 3, 14, 40321903, Mon Aug 21 2017 12:47:44 GMT-0400 (Eastern Daylight Time), Road_Intersection, 60
, , , , , , , , , , , , left, 1, 1.1670000000000016, , , , , , , , , , , , navNearLeft.jpg, Go left. , left, , , , , navNearLeft.jpg, Go left. , left, 0, 4, 4, 10, 40321903, Mon Aug 21 2017 12:47:44 GMT-0400 (Eastern Daylight Time), Road_Intersection, 60
, , , , , , , , , , , , left, 1, 0.7319999999999993, , , , , , , , , , , , navNearLeft.jpg, Go home., left, , , , , navNearLeft.jpg, Go home., left, 0, 5, 5, 2, 40321903, Mon Aug 21 2017 12:47:44 GMT-0400 (Eastern Daylight Time), Road_Intersection, 60
, , , , , , , , , , , , left, 0, 2.1999999999999886, , , , , , , , , , , , navFarLeft.jpg, Go away. , right, , , , , navFarLeft.jpg, Go away. , right, 0, 6, 6, 4, 40321903, Mon Aug 21 2017 12:47:44 GMT-0400 (Eastern Daylight Time), Road_Intersection, 60
, , , , , , , , , , , , right, 1, 0.664999999999992, , , , , , , , , , , , navNearLeft.jpg, Go away. , right, , , , , navNearLeft.jpg, Go away. , right, 0, 7, 7, 6, 40321903, Mon Aug 21 2017 12:47:44 GMT-0400 (Eastern Daylight Time), Road_Intersection, 60
, , , , , , , , , , , , right, 0, 1.1659999999999968, , , , , , , , , , , , navFarRight.jpg, Go away. , left, , , , , navFarRight.jpg, Go away. , left, 0, 8, 8, 5, 40321903, Mon Aug 21 2017 12:47:44 GMT-0400 (Eastern Daylight Time), Road_Intersection, 60
, , , , , , , , , , , , right, 1, 1.3500000000000227, , , , , , , , , , , , navFarRight.jpg, Go left. , right, , , , , navFarRight.jpg, Go left. , right, 0, 9, 9, 9, 40321903, Mon Aug 21 2017 12:47:44 GMT-0400 (Eastern Daylight Time), Road_Intersection, 60
, , , , , , , , , , , , right, 1, 2.6999999999999886, , , , , , , , , , , , navFarLeft.jpg, Go left. , right, , , , , navFarLeft.jpg, Go left. , right, 0, 10, 10, 8, 40321903, Mon Aug 21 2017 12:47:44 GMT-0400 (Eastern Daylight Time), Road_Intersection, 60
, , , , , , , , , , , , left, 1, 0.950000000000017, , , , , , , , , , , , navNearRight.jpg, Go away. , left, , , , , navNearRight.jpg, Go away. , left, 0, 11, 11, 7, 40321903, Mon Aug 21 2017 12:47:44 GMT-0400 (Eastern Daylight Time), Road_Intersection, 60
, , , , , , , , , , , , left, 0, 1.0159999999999911, , , , , , , , , , , , navFarRight.jpg, Go home., right, , , , , navFarRight.jpg, Go home., right, 0, 12, 12, 1, 40321903, Mon Aug 21 2017 12:47:44 GMT-0400 (Eastern Daylight Time), Road_Intersection, 60
, , , , , , , , , , , , left, 1, 1.318000000000012, , , , , , , , , , , , navFarRight.jpg, Go right. , left, , , , , navFarRight.jpg, Go right. , left, 0, 13, 13, 13, 40321903, Mon Aug 21 2017 12:47:44 GMT-0400 (Eastern Daylight Time), Road_Intersection, 60
, , , , , , , , , , , , left, 1, 0.849000000000018, , , , , , , , , , , , navNearRight.jpg, Go left. , left, , , , , navNearRight.jpg, Go left. , left, 0, 14, 14, 11, 40321903, Mon Aug 21 2017 12:47:44 GMT-0400 (Eastern Daylight Time), Road_Intersection, 60
, , , , , , , , , , , , right, 1, 0.5829999999999984, , , , , , , , , , , , navNearRight.jpg, Go right. , right, , , , , navNearRight.jpg, Go right. , right, 0, 15, 15, 15, 40321903, Mon Aug 21 2017 12:47:44 GMT-0400 (Eastern Daylight Time), Road_Intersection, 60
, , , , , , , , , , , , right, 1, 0.6670000000000016, , , , , , , , , , , , navNearRight.jpg, Go right. , right, , , , , navNearRight.jpg, Go right. , right, 1, 0, 16, 15, 40321903, Mon Aug 21 2017 12:47:44 GMT-0400 (Eastern Daylight Time), Road_Intersection, 60
, , , , , , , , , , , , right, 1, 0.75, , , , , , , , , , , , navNearRight.jpg, Go home., right, , , , , navNearRight.jpg, Go home., right, 1, 1, 17, 3, 40321903, Mon Aug 21 2017 12:47:44 GMT-0400 (Eastern Daylight Time), Road_Intersection, 60
, , , , , , , , , , , , right, 0, 1.25, , , , , , , , , , , , navFarRight.jpg, Go away. , left, , , , , navFarRight.jpg, Go away. , left, 1, 2, 18, 5, 40321903, Mon Aug 21 2017 12:47:44 GMT-0400 (Eastern Daylight Time), Road_Intersection, 60
, , , , , , , , , , , , left, 0, 0.6510000000000105, , , , , , , , , , , , navFarRight.jpg, Go home., right, , , , , navFarRight.jpg, Go home., right, 1, 3, 19, 1, 40321903, Mon Aug 21 2017 12:47:44 GMT-0400 (Eastern Daylight Time), Road_Intersection, 60
, , , , , , , , , , , , right, 1, 0.6809999999999832, , , , , , , , , , , , navNearLeft.jpg, Go away. , right, , , , , navNearLeft.jpg, Go away. , right, 1, 4, 20, 6, 40321903, Mon Aug 21 2017 12:47:44 GMT-0400 (Eastern Daylight Time), Road_Intersection, 60
, , , , , , , , , , , , right, 1, 0.9159999999999968, , , , , , , , , , , , navFarRight.jpg, Go left. , right, , , , , navFarRight.jpg, Go left. , right, 1, 5, 21, 9, 40321903, Mon Aug 21 2017 12:47:44 GMT-0400 (Eastern Daylight Time), Road_Intersection, 60
, , , , , , , , , , , , left, 1, 0.7670000000000243, , , , , , , , , , , , navFarLeft.jpg, Go right. , left, , , , , navFarLeft.jpg, Go right. , left, 1, 6, 22, 12, 40321903, Mon Aug 21 2017 12:47:44 GMT-0400 (Eastern Daylight Time), Road_Intersection, 60
, , , , , , , , , , , , left, 1, 0.6989999999999839, , , , , , , , , , , , navNearRight.jpg, Go away. , left, , , , , navNearRight.jpg, Go away. , left, 1, 7, 23, 7, 40321903, Mon Aug 21 2017 12:47:44 GMT-0400 (Eastern Daylight Time), Road_Intersection, 60
, , , , , , , , , , , , right, 0, 0.782999999999987, , , , , , , , , , , , navFarLeft.jpg, Go home., left, , , , , navFarLeft.jpg, Go home., left, 1, 8, 24, 0, 40321903, Mon Aug 21 2017 12:47:44 GMT-0400 (Eastern Daylight Time), Road_Intersection, 60
, , , , , , , , , , , , left, 0, 0.599000000000018, , , , , , , , , , , , navFarLeft.jpg, Go away. , right, , , , , navFarLeft.jpg, Go away. , right, 1, 9, 25, 4, 40321903, Mon Aug 21 2017 12:47:44 GMT-0400 (Eastern Daylight Time), Road_Intersection, 60
, , , , , , , , , , , , left, 1, 0.7009999999999934, , , , , , , , , , , , navNearLeft.jpg, Go left. , left, , , , , navNearLeft.jpg, Go left. , left, 1, 10, 26, 10, 40321903, Mon Aug 21 2017 12:47:44 GMT-0400 (Eastern Daylight Time), Road_Intersection, 60
, , , , , , , , , , , , right, 0, 0.9170000000000016, , , , , , , , , , , , navFarRight.jpg, Go right. , left, , , , , navFarRight.jpg, Go right. , left, 1, 11, 27, 13, 40321903, Mon Aug 21 2017 12:47:44 GMT-0400 (Eastern Daylight Time), Road_Intersection, 60
, , , , , , , , , , , , right, 1, 1.3160000000000025, , , , , , , , , , , , navFarLeft.jpg, Go left. , right, , , , , navFarLeft.jpg, Go left. , right, 1, 12, 28, 8, 40321903, Mon Aug 21 2017 12:47:44 GMT-0400 (Eastern Daylight Time), Road_Intersection, 60
, , , , , , , , , , , , right, 1, 0.8160000000000025, , , , , , , , , , , , navNearLeft.jpg, Go right. , right, , , , , navNearLeft.jpg, Go right. , right, 1, 13, 29, 14, 40321903, Mon Aug 21 2017 12:47:44 GMT-0400 (Eastern Daylight Time), Road_Intersection, 60
, , , , , , , , , , , , left, 1, 0.882000000000005, , , , , , , , , , , , navNearRight.jpg, Go left. , left, , , , , navNearRight.jpg, Go left. , left, 1, 14, 30, 11, 40321903, Mon Aug 21 2017 12:47:44 GMT-0400 (Eastern Daylight Time), Road_Intersection, 60
, , , , , , , , , , , , left, 1, 0.8009999999999877, , , , , , , , , , , , navNearLeft.jpg, Go home., left, , , , , navNearLeft.jpg, Go home., left, 1, 15, 31, 2, 40321903, Mon Aug 21 2017 12:47:44 GMT-0400 (Eastern Daylight Time), Road_Intersection, 60
, , , , , , , , , , , , left, 1, 1.132000000000005, , , , , , , , , , , , navNearRight.jpg, Go away. , left, , , , , navNearRight.jpg, Go away. , left, 2, 0, 32, 7, 40321903, Mon Aug 21 2017 12:47:44 GMT-0400 (Eastern Daylight Time), Road_Intersection, 60
, , , , , , , , , , , , right, 1, 0.75, , , , , , , , , , , , navNearRight.jpg, Go right. , right, , , , , navNearRight.jpg, Go right. , right, 2, 1, 33, 15, 40321903, Mon Aug 21 2017 12:47:44 GMT-0400 (Eastern Daylight Time), Road_Intersection, 60
, , , , , , , , , , , , left, 1, 0.6990000000000123, , , , , , , , , , , , navFarLeft.jpg, Go right. , left, , , , , navFarLeft.jpg, Go right. , left, 2, 2, 34, 12, 40321903, Mon Aug 21 2017 12:47:44 GMT-0400 (Eastern Daylight Time), Road_Intersection, 60
, , , , , , , , , , , , right, 1, 1.0150000000000432, , , , , , , , , , , , navNearRight.jpg, Go home., right, , , , , navNearRight.jpg, Go home., right, 2, 3, 35, 3, 40321903, Mon Aug 21 2017 12:47:44 GMT-0400 (Eastern Daylight Time), Road_Intersection, 60
, , , , , , , , , , , , left, 1, 0.8170000000000073, , , , , , , , , , , , navNearLeft.jpg, Go left. , left, , , , , navNearLeft.jpg, Go left. , left, 2, 4, 36, 10, 40321903, Mon Aug 21 2017 12:47:44 GMT-0400 (Eastern Daylight Time), Road_Intersection, 60
, , , , , , , , , , , , left, 0, 0.9320000000000164, , , , , , , , , , , , navFarLeft.jpg, Go away. , right, , , , , navFarLeft.jpg, Go away. , right, 2, 5, 37, 4, 40321903, Mon Aug 21 2017 12:47:44 GMT-0400 (Eastern Daylight Time), Road_Intersection, 60
, , , , , , , , , , , , right, 0, 0.6659999999999968, , , , , , , , , , , , navFarLeft.jpg, Go home., left, , , , , navFarLeft.jpg, Go home., left, 2, 6, 38, 0, 40321903, Mon Aug 21 2017 12:47:44 GMT-0400 (Eastern Daylight Time), Road_Intersection, 60
, , , , , , , , , , , , right, 1, 0.8159999999999741, , , , , , , , , , , , navNearLeft.jpg, Go right. , right, , , , , navNearLeft.jpg, Go right. , right, 2, 7, 39, 14, 40321903, Mon Aug 21 2017 12:47:44 GMT-0400 (Eastern Daylight Time), Road_Intersection, 60
, , , , , , , , , , , , left, 1, 0.9499999999999886, , , , , , , , , , , , navFarRight.jpg, Go right. , left, , , , , navFarRight.jpg, Go right. , left, 2, 8, 40, 13, 40321903, Mon Aug 21 2017 12:47:44 GMT-0400 (Eastern Daylight Time), Road_Intersection, 60
, , , , , , , , , , , , right, 1, 0.7669999999999959, , , , , , , , , , , , navFarLeft.jpg, Go left. , right, , , , , navFarLeft.jpg, Go left. , right, 2, 9, 41, 8, 40321903, Mon Aug 21 2017 12:47:44 GMT-0400 (Eastern Daylight Time), Road_Intersection, 60
, , , , , , , , , , , , right, 1, 1.1340000000000146, , , , , , , , , , , , navNearLeft.jpg, Go away. , right, , , , , navNearLeft.jpg, Go away. , right, 2, 10, 42, 6, 40321903, Mon Aug 21 2017 12:47:44 GMT-0400 (Eastern Daylight Time), Road_Intersection, 60
, , , , , , , , , , , , left, 1, 0.8490000000000464, , , , , , , , , , , , navNearLeft.jpg, Go home., left, , , , , navNearLeft.jpg, Go home., left, 2, 11, 43, 2, 40321903, Mon Aug 21 2017 12:47:44 GMT-0400 (Eastern Daylight Time), Road_Intersection, 60
, , , , , , , , , , , , left, 1, 1.0009999999999764, , , , , , , , , , , , navFarRight.jpg, Go away. , left, , , , , navFarRight.jpg, Go away. , left, 2, 12, 44, 5, 40321903, Mon Aug 21 2017 12:47:44 GMT-0400 (Eastern Daylight Time), Road_Intersection, 60
, , , , , , , , , , , , right, 1, 0.8489999999999895, , , , , , , , , , , , navFarRight.jpg, Go left. , right, , , , , navFarRight.jpg, Go left. , right, 2, 13, 45, 9, 40321903, Mon Aug 21 2017 12:47:44 GMT-0400 (Eastern Daylight Time), Road_Intersection, 60
, , , , , , , , , , , , left, 1, 1.0160000000000196, , , , , , , , , , , , navNearRight.jpg, Go left. , left, , , , , navNearRight.jpg, Go left. , left, 2, 14, 46, 11, 40321903, Mon Aug 21 2017 12:47:44 GMT-0400 (Eastern Daylight Time), Road_Intersection, 60
, , , , , , , , , , , , left, 0, 1.316000000000031, , , , , , , , , , , , navFarRight.jpg, Go home., right, , , , , navFarRight.jpg, Go home., right, 2, 15, 47, 1, 40321903, Mon Aug 21 2017 12:47:44 GMT-0400 (Eastern Daylight Time), Road_Intersection, 60
, , , , , , , , , , , , right, 1, 0.7340000000000373, , , , , , , , , , , , navNearLeft.jpg, Go away. , right, , , , , navNearLeft.jpg, Go away. , right, 3, 0, 48, 6, 40321903, Mon Aug 21 2017 12:47:44 GMT-0400 (Eastern Daylight Time), Road_Intersection, 60
, , , , , , , , , , , , right, 1, 0.6999999999999886, , , , , , , , , , , , navNearRight.jpg, Go home., right, , , , , navNearRight.jpg, Go home., right, 3, 1, 49, 3, 40321903, Mon Aug 21 2017 12:47:44 GMT-0400 (Eastern Daylight Time), Road_Intersection, 60
, , , , , , , , , , , , right, 0, 1.5330000000000155, , , , , , , , , , , , navFarRight.jpg, Go away. , left, , , , , navFarRight.jpg, Go away. , left, 3, 2, 50, 5, 40321903, Mon Aug 21 2017 12:47:44 GMT-0400 (Eastern Daylight Time), Road_Intersection, 60
, , , , , , , , , , , , left, 1, 0.7339999999999804, , , , , , , , , , , , navNearLeft.jpg, Go left. , left, , , , , navNearLeft.jpg, Go left. , left, 3, 3, 51, 10, 40321903, Mon Aug 21 2017 12:47:44 GMT-0400 (Eastern Daylight Time), Road_Intersection, 60
, , , , , , , , , , , , right, 0, 0.8009999999999877, , , , , , , , , , , , navFarLeft.jpg, Go home., left, , , , , navFarLeft.jpg, Go home., left, 3, 4, 52, 0, 40321903, Mon Aug 21 2017 12:47:44 GMT-0400 (Eastern Daylight Time), Road_Intersection, 60
, , , , , , , , , , , , left, 1, 1.0009999999999764, , , , , , , , , , , , navFarRight.jpg, Go right. , left, , , , , navFarRight.jpg, Go right. , left, 3, 5, 53, 13, 40321903, Mon Aug 21 2017 12:47:44 GMT-0400 (Eastern Daylight Time), Road_Intersection, 60
, , , , , , , , , , , , right, 1, 0.8500000000000227, , , , , , , , , , , , navFarLeft.jpg, Go left. , right, , , , , navFarLeft.jpg, Go left. , right, 3, 6, 54, 8, 40321903, Mon Aug 21 2017 12:47:44 GMT-0400 (Eastern Daylight Time), Road_Intersection, 60
, , , , , , , , , , , , right, 1, 0.8659999999999854, , , , , , , , , , , , navFarRight.jpg, Go left. , right, , , , , navFarRight.jpg, Go left. , right, 3, 7, 55, 9, 40321903, Mon Aug 21 2017 12:47:44 GMT-0400 (Eastern Daylight Time), Road_Intersection, 60
, , , , , , , , , , , , left, 0, 2.201000000000022, , , , , , , , , , , , navFarLeft.jpg, Go away. , right, , , , , navFarLeft.jpg, Go away. , right, 3, 8, 56, 4, 40321903, Mon Aug 21 2017 12:47:44 GMT-0400 (Eastern Daylight Time), Road_Intersection, 60
, , , , , , , , , , , , left, 1, 0.6829999999999927, , , , , , , , , , , , navNearRight.jpg, Go left. , left, , , , , navNearRight.jpg, Go left. , left, 3, 9, 57, 11, 40321903, Mon Aug 21 2017 12:47:44 GMT-0400 (Eastern Daylight Time), Road_Intersection, 60
, , , , , , , , , , , , right, 1, 0.6159999999999854, , , , , , , , , , , , navNearLeft.jpg, Go right. , right, , , , , navNearLeft.jpg, Go right. , right, 3, 10, 58, 14, 40321903, Mon Aug 21 2017 12:47:44 GMT-0400 (Eastern Daylight Time), Road_Intersection, 60
, , , , , , , , , , , , left, 1, 0.7989999999999782, , , , , , , , , , , , navNearLeft.jpg, Go home., left, , , , , navNearLeft.jpg, Go home., left, 3, 11, 59, 2, 40321903, Mon Aug 21 2017 12:47:44 GMT-0400 (Eastern Daylight Time), Road_Intersection, 60
, , , , , , , , , , , , right, 1, 0.6159999999999854, , , , , , , , , , , , navNearRight.jpg, Go right. , right, , , , , navNearRight.jpg, Go right. , right, 3, 12, 60, 15, 40321903, Mon Aug 21 2017 12:47:44 GMT-0400 (Eastern Daylight Time), Road_Intersection, 60
, , , , , , , , , , , , left, 0, 0.7839999999999918, , , , , , , , , , , , navFarRight.jpg, Go home., right, , , , , navFarRight.jpg, Go home., right, 3, 13, 61, 1, 40321903, Mon Aug 21 2017 12:47:44 GMT-0400 (Eastern Daylight Time), Road_Intersection, 60
, , , , , , , , , , , , left, 1, 0.7330000000000041, , , , , , , , , , , , navNearRight.jpg, Go away. , left, , , , , navNearRight.jpg, Go away. , left, 3, 14, 62, 7, 40321903, Mon Aug 21 2017 12:47:44 GMT-0400 (Eastern Daylight Time), Road_Intersection, 60
, , , , , , , , , , , , left, 1, 1.1829999999999927, , , , , , , , , , , , navFarLeft.jpg, Go right. , left, , , , , navFarLeft.jpg, Go right. , left, 3, 15, 63, 12, 40321903, Mon Aug 21 2017 12:47:44 GMT-0400 (Eastern Daylight Time), Road_Intersection, 60
