Continue.keys, Continue.rt, instructions_response.keys, instructions_response.rt, repeat_response.keys, repeat_response.rt, key_resp_5.keys, key_resp_5.rt, key_resp_2.keys, key_resp_2.rt, key_resp_4.keys, key_resp_4.rt, Trials_response.keys, Trials_response.corr, Trials_response.rt, Block_Continue.keys, Block_Continue.rt, Image, instructions_1_loop.thisRepN, instructions_1_loop.thisTrialN, instructions_1_loop.thisN, instructions_1_loop.thisIndex, instructions_2_repeat.thisRepN, instructions_2_repeat.thisTrialN, instructions_2_repeat.thisN, instructions_2_repeat.thisIndex, stim, prompt, answer, trials_2.thisRepN, trials_2.thisTrialN, trials_2.thisN, trials_2.thisIndex, stim, prompt, answer, trials.thisRepN, trials.thisTrialN, trials.thisN, trials.thisIndex, participant, date, expName, frameRate
space, 0.9990000000000006, space, 8.028999999999998, , , , , , , , , , , , , , Slide15.JPG, 0, 0, 0, 0, , , , , , , , , , , , , , , , , , , 49320823, Sun Aug 20 2017 12:06:43 GMT-0400 (Eastern Daylight Time), Road_Intersection, 60
, , space, 10.762, , , , , , , , , , , , , , Slide16.JPG, 0, 1, 1, 1, , , , , , , , , , , , , , , , , , , 49320823, Sun Aug 20 2017 12:06:43 GMT-0400 (Eastern Daylight Time), Road_Intersection, 60
, , space, 2.6660000000000004, , , , , , , , , , , , , , Slide17.JPG, 0, 2, 2, 2, , , , , , , , , , , , , , , , , , , 49320823, Sun Aug 20 2017 12:06:43 GMT-0400 (Eastern Daylight Time), Road_Intersection, 60
, , space, 35.288000000000004, , , , , , , , , , , , , , Slide18.JPG, 0, 3, 3, 3, , , , , , , , , , , , , , , , , , , 49320823, Sun Aug 20 2017 12:06:43 GMT-0400 (Eastern Daylight Time), Road_Intersection, 60
, , space, 7.762999999999991, , , , , , , , , , , , , , Slide19.JPG, 0, 4, 4, 4, , , , , , , , , , , , , , , , , , , 49320823, Sun Aug 20 2017 12:06:43 GMT-0400 (Eastern Daylight Time), Road_Intersection, 60
, , space, 10.796999999999997, , , , , , , , , , , , , , Slide20.JPG, 0, 5, 5, 5, , , , , , , , , , , , , , , , , , , 49320823, Sun Aug 20 2017 12:06:43 GMT-0400 (Eastern Daylight Time), Road_Intersection, 60
, , space, 7.299999999999997, , , , , , , , , , , , , , Slide21.JPG, 0, 6, 6, 6, , , , , , , , , , , , , , , , , , , 49320823, Sun Aug 20 2017 12:06:43 GMT-0400 (Eastern Daylight Time), Road_Intersection, 60
, , space, 11.313999999999993, , , , , , , , , , , , , , Slide22.JPG, 0, 7, 7, 7, , , , , , , , , , , , , , , , , , , 49320823, Sun Aug 20 2017 12:06:43 GMT-0400 (Eastern Daylight Time), Road_Intersection, 60
, , space, 5.4480000000000075, , , , , , , , , , , , , , Slide23.JPG, 0, 8, 8, 8, , , , , , , , , , , , , , , , , , , 49320823, Sun Aug 20 2017 12:06:43 GMT-0400 (Eastern Daylight Time), Road_Intersection, 60
, , space, 3.280000000000001, , , , , , , , , , , , , , Slide24.JPG, 0, 9, 9, 9, , , , , , , , , , , , , , , , , , , 49320823, Sun Aug 20 2017 12:06:43 GMT-0400 (Eastern Daylight Time), Road_Intersection, 60
, , space, 2.6839999999999975, , , , , , , , , , , , , , Slide25.JPG, 0, 10, 10, 10, , , , , , , , , , , , , , , , , , , 49320823, Sun Aug 20 2017 12:06:43 GMT-0400 (Eastern Daylight Time), Road_Intersection, 60
, , space, 2.046999999999997, , , , , , , , , , , , , , Slide26.JPG, 0, 11, 11, 11, , , , , , , , , , , , , , , , , , , 49320823, Sun Aug 20 2017 12:06:43 GMT-0400 (Eastern Daylight Time), Road_Intersection, 60
, , space, 1.4519999999999982, , , , , , , , , , , , , , Slide27.JPG, 0, 12, 12, 12, , , , , , , , , , , , , , , , , , , 49320823, Sun Aug 20 2017 12:06:43 GMT-0400 (Eastern Daylight Time), Road_Intersection, 60
, , space, 7.51400000000001, , , , , , , , , , , , , , Slide28.JPG, 0, 13, 13, 13, , , , , , , , , , , , , , , , , , , 49320823, Sun Aug 20 2017 12:06:43 GMT-0400 (Eastern Daylight Time), Road_Intersection, 60
, , , , 0, 3.849000000000018, space, 9.72999999999999, left, 4.812000000000012, , , , , , , , , , , , , , , , , navFarLeft.jpg, Go right., left, 0, 0, 0, 0, navFarLeft.jpg, Go right., left, , , , , 49320823, Sun Aug 20 2017 12:06:43 GMT-0400 (Eastern Daylight Time), Road_Intersection, 60
, , , , , , , , right, 2.080999999999989, , , , , , , , , , , , , , , , , navNearLeft.jpg, Go away., right, 0, 1, 1, 1, navNearLeft.jpg, Go away., right, , , , , 49320823, Sun Aug 20 2017 12:06:43 GMT-0400 (Eastern Daylight Time), Road_Intersection, 60
, , , , , , , , right, 1.5670000000000073, , , , , , , , , , , , , , , , , navFarRight.jpg, Go left., right, 0, 2, 2, 2, navFarRight.jpg, Go left., right, , , , , 49320823, Sun Aug 20 2017 12:06:43 GMT-0400 (Eastern Daylight Time), Road_Intersection, 60
, , , , , , , , right, 0.9150000000000205, , , , , , , , , , , , , , , , , navNearRight.jpg, Go home. , right, 0, 3, 3, 3, navNearRight.jpg, Go home. , right, , , , , 49320823, Sun Aug 20 2017 12:06:43 GMT-0400 (Eastern Daylight Time), Road_Intersection, 60
, , , , , , , , left, 1.4819999999999993, , , , , , , , , , , , , , , , , navNearLeft.jpg, Go left., left, 0, 4, 4, 4, navNearLeft.jpg, Go left., left, , , , , 49320823, Sun Aug 20 2017 12:06:43 GMT-0400 (Eastern Daylight Time), Road_Intersection, 60
, , , , , , , , right, 1.2650000000000148, , , , , , , , , , , , , , , , , navNearRight.jpg, Go home., right, 0, 5, 5, 5, navNearRight.jpg, Go home., right, , , , , 49320823, Sun Aug 20 2017 12:06:43 GMT-0400 (Eastern Daylight Time), Road_Intersection, 60
, , , , , , , , right, 2.164999999999992, , , , , , , , , , , , , , , , , navNearLeft.jpg, Go away., right, 0, 6, 6, 6, navNearLeft.jpg, Go away., right, , , , , 49320823, Sun Aug 20 2017 12:06:43 GMT-0400 (Eastern Daylight Time), Road_Intersection, 60
, , , , , , , , left, 2.4650000000000034, , , , , , , , , , , , , , , , , navFarLeft.jpg, Go right., left, 0, 7, 7, 7, navFarLeft.jpg, Go right., left, , , , , 49320823, Sun Aug 20 2017 12:06:43 GMT-0400 (Eastern Daylight Time), Road_Intersection, 60
, , , , , , , , , , space, 5.614000000000004, right, 1, 1.9309999999999832, , , , , , , , , , , , navFarLeft.jpg, Go left. , right, , , , , navFarLeft.jpg, Go left. , right, 0, 0, 0, 8, 49320823, Sun Aug 20 2017 12:06:43 GMT-0400 (Eastern Daylight Time), Road_Intersection, 60
, , , , , , , , , , , , left, 1, 0.9989999999999952, , , , , , , , , , , , navNearLeft.jpg, Go home., left, , , , , navNearLeft.jpg, Go home., left, 0, 1, 1, 2, 49320823, Sun Aug 20 2017 12:06:43 GMT-0400 (Eastern Daylight Time), Road_Intersection, 60
, , , , , , , , , , , , right, 1, 1.4690000000000225, , , , , , , , , , , , navNearLeft.jpg, Go right. , right, , , , , navNearLeft.jpg, Go right. , right, 0, 2, 2, 14, 49320823, Sun Aug 20 2017 12:06:43 GMT-0400 (Eastern Daylight Time), Road_Intersection, 60
, , , , , , , , , , , , left, 1, 1.1510000000000105, , , , , , , , , , , , navNearLeft.jpg, Go left. , left, , , , , navNearLeft.jpg, Go left. , left, 0, 3, 3, 10, 49320823, Sun Aug 20 2017 12:06:43 GMT-0400 (Eastern Daylight Time), Road_Intersection, 60
, , , , , , , , , , , , right, 1, 1.399000000000001, , , , , , , , , , , , navFarRight.jpg, Go home., right, , , , , navFarRight.jpg, Go home., right, 0, 4, 4, 1, 49320823, Sun Aug 20 2017 12:06:43 GMT-0400 (Eastern Daylight Time), Road_Intersection, 60
, , , , , , , , , , , , left, 0, 1.983000000000004, , , , , , , , , , , , navFarLeft.jpg, Go away. , right, , , , , navFarLeft.jpg, Go away. , right, 0, 5, 5, 4, 49320823, Sun Aug 20 2017 12:06:43 GMT-0400 (Eastern Daylight Time), Road_Intersection, 60
, , , , , , , , , , , , right, 1, 1.4659999999999798, , , , , , , , , , , , navNearRight.jpg, Go home., right, , , , , navNearRight.jpg, Go home., right, 0, 6, 6, 3, 49320823, Sun Aug 20 2017 12:06:43 GMT-0400 (Eastern Daylight Time), Road_Intersection, 60
, , , , , , , , , , , , right, 1, 1.9159999999999968, , , , , , , , , , , , navNearRight.jpg, Go right. , right, , , , , navNearRight.jpg, Go right. , right, 0, 7, 7, 15, 49320823, Sun Aug 20 2017 12:06:43 GMT-0400 (Eastern Daylight Time), Road_Intersection, 60
, , , , , , , , , , , , right, 1, 1.3340000000000032, , , , , , , , , , , , navNearLeft.jpg, Go away. , right, , , , , navNearLeft.jpg, Go away. , right, 0, 8, 8, 6, 49320823, Sun Aug 20 2017 12:06:43 GMT-0400 (Eastern Daylight Time), Road_Intersection, 60
, , , , , , , , , , , , left, 1, 2.0490000000000066, , , , , , , , , , , , navFarRight.jpg, Go away. , left, , , , , navFarRight.jpg, Go away. , left, 0, 9, 9, 5, 49320823, Sun Aug 20 2017 12:06:43 GMT-0400 (Eastern Daylight Time), Road_Intersection, 60
, , , , , , , , , , , , left, 1, 2.9820000000000277, , , , , , , , , , , , navFarRight.jpg, Go right. , left, , , , , navFarRight.jpg, Go right. , left, 0, 10, 10, 13, 49320823, Sun Aug 20 2017 12:06:43 GMT-0400 (Eastern Daylight Time), Road_Intersection, 60
, , , , , , , , , , , , left, 1, 1.5160000000000196, , , , , , , , , , , , navNearRight.jpg, Go left. , left, , , , , navNearRight.jpg, Go left. , left, 0, 11, 11, 11, 49320823, Sun Aug 20 2017 12:06:43 GMT-0400 (Eastern Daylight Time), Road_Intersection, 60
, , , , , , , , , , , , left, 1, 1.7660000000000196, , , , , , , , , , , , navFarLeft.jpg, Go right. , left, , , , , navFarLeft.jpg, Go right. , left, 0, 12, 12, 12, 49320823, Sun Aug 20 2017 12:06:43 GMT-0400 (Eastern Daylight Time), Road_Intersection, 60
, , , , , , , , , , , , right, 1, 5.380999999999972, , , , , , , , , , , , navFarRight.jpg, Go left. , right, , , , , navFarRight.jpg, Go left. , right, 0, 13, 13, 9, 49320823, Sun Aug 20 2017 12:06:43 GMT-0400 (Eastern Daylight Time), Road_Intersection, 60
, , , , , , , , , , , , right, 0, 2.1650000000000205, , , , , , , , , , , , navFarLeft.jpg, Go home., left, , , , , navFarLeft.jpg, Go home., left, 0, 14, 14, 0, 49320823, Sun Aug 20 2017 12:06:43 GMT-0400 (Eastern Daylight Time), Road_Intersection, 60
, , , , , , , , , , , , right, 0, 1.434000000000026, , , , , , , , , , , , navNearRight.jpg, Go away. , left, , , , , navNearRight.jpg, Go away. , left, 0, 15, 15, 7, 49320823, Sun Aug 20 2017 12:06:43 GMT-0400 (Eastern Daylight Time), Road_Intersection, 60
, , , , , , , , , , , , right, 0, 1.4790000000000418, , , , , , , , , , , , navFarRight.jpg, Go away. , left, , , , , navFarRight.jpg, Go away. , left, 1, 0, 16, 5, 49320823, Sun Aug 20 2017 12:06:43 GMT-0400 (Eastern Daylight Time), Road_Intersection, 60
, , , , , , , , , , , , left, 1, 0.9650000000000318, , , , , , , , , , , , navNearLeft.jpg, Go left. , left, , , , , navNearLeft.jpg, Go left. , left, 1, 1, 17, 10, 49320823, Sun Aug 20 2017 12:06:43 GMT-0400 (Eastern Daylight Time), Road_Intersection, 60
, , , , , , , , , , , , right, 1, 0.7180000000000177, , , , , , , , , , , , navNearLeft.jpg, Go right. , right, , , , , navNearLeft.jpg, Go right. , right, 1, 2, 18, 14, 49320823, Sun Aug 20 2017 12:06:43 GMT-0400 (Eastern Daylight Time), Road_Intersection, 60
, , , , , , , , , , , , left, 1, 2.23599999999999, , , , , , , , , , , , navFarRight.jpg, Go right. , left, , , , , navFarRight.jpg, Go right. , left, 1, 3, 19, 13, 49320823, Sun Aug 20 2017 12:06:43 GMT-0400 (Eastern Daylight Time), Road_Intersection, 60
, , , , , , , , , , , , right, 1, 2.049000000000035, , , , , , , , , , , , navNearLeft.jpg, Go away. , right, , , , , navNearLeft.jpg, Go away. , right, 1, 4, 20, 6, 49320823, Sun Aug 20 2017 12:06:43 GMT-0400 (Eastern Daylight Time), Road_Intersection, 60
, , , , , , , , , , , , right, 0, 1.7839999999999918, , , , , , , , , , , , navFarLeft.jpg, Go home., left, , , , , navFarLeft.jpg, Go home., left, 1, 5, 21, 0, 49320823, Sun Aug 20 2017 12:06:43 GMT-0400 (Eastern Daylight Time), Road_Intersection, 60
, , , , , , , , , , , , left, 0, 1.9660000000000082, , , , , , , , , , , , navFarRight.jpg, Go home., right, , , , , navFarRight.jpg, Go home., right, 1, 6, 22, 1, 49320823, Sun Aug 20 2017 12:06:43 GMT-0400 (Eastern Daylight Time), Road_Intersection, 60
, , , , , , , , , , , , right, 1, 0.7799999999999727, , , , , , , , , , , , navNearRight.jpg, Go right. , right, , , , , navNearRight.jpg, Go right. , right, 1, 7, 23, 15, 49320823, Sun Aug 20 2017 12:06:43 GMT-0400 (Eastern Daylight Time), Road_Intersection, 60
, , , , , , , , , , , , right, 1, 0.5299999999999727, , , , , , , , , , , , navNearRight.jpg, Go home., right, , , , , navNearRight.jpg, Go home., right, 1, 8, 24, 3, 49320823, Sun Aug 20 2017 12:06:43 GMT-0400 (Eastern Daylight Time), Road_Intersection, 60
, , , , , , , , , , , , right, 1, 0.9330000000000496, , , , , , , , , , , , navFarRight.jpg, Go left. , right, , , , , navFarRight.jpg, Go left. , right, 1, 9, 25, 9, 49320823, Sun Aug 20 2017 12:06:43 GMT-0400 (Eastern Daylight Time), Road_Intersection, 60
, , , , , , , , , , , , right, 1, 1.149000000000001, , , , , , , , , , , , navFarLeft.jpg, Go left. , right, , , , , navFarLeft.jpg, Go left. , right, 1, 10, 26, 8, 49320823, Sun Aug 20 2017 12:06:43 GMT-0400 (Eastern Daylight Time), Road_Intersection, 60
, , , , , , , , , , , , left, 1, 1.1510000000000105, , , , , , , , , , , , navFarLeft.jpg, Go right. , left, , , , , navFarLeft.jpg, Go right. , left, 1, 11, 27, 12, 49320823, Sun Aug 20 2017 12:06:43 GMT-0400 (Eastern Daylight Time), Road_Intersection, 60
, , , , , , , , , , , , left, 1, 1, , , , , , , , , , , , navNearLeft.jpg, Go home., left, , , , , navNearLeft.jpg, Go home., left, 1, 12, 28, 2, 49320823, Sun Aug 20 2017 12:06:43 GMT-0400 (Eastern Daylight Time), Road_Intersection, 60
, , , , , , , , , , , , left, 0, 1.9470000000000027, , , , , , , , , , , , navFarLeft.jpg, Go away. , right, , , , , navFarLeft.jpg, Go away. , right, 1, 13, 29, 4, 49320823, Sun Aug 20 2017 12:06:43 GMT-0400 (Eastern Daylight Time), Road_Intersection, 60
, , , , , , , , , , , , left, 1, 0.7330000000000041, , , , , , , , , , , , navNearRight.jpg, Go left. , left, , , , , navNearRight.jpg, Go left. , left, 1, 14, 30, 11, 49320823, Sun Aug 20 2017 12:06:43 GMT-0400 (Eastern Daylight Time), Road_Intersection, 60
, , , , , , , , , , , , left, 1, 1.1040000000000418, , , , , , , , , , , , navNearRight.jpg, Go away. , left, , , , , navNearRight.jpg, Go away. , left, 1, 15, 31, 7, 49320823, Sun Aug 20 2017 12:06:43 GMT-0400 (Eastern Daylight Time), Road_Intersection, 60
, , , , , , , , , , , , right, 1, 0.75, , , , , , , , , , , , navNearLeft.jpg, Go away. , right, , , , , navNearLeft.jpg, Go away. , right, 2, 0, 32, 6, 49320823, Sun Aug 20 2017 12:06:43 GMT-0400 (Eastern Daylight Time), Road_Intersection, 60
, , , , , , , , , , , , right, 1, 0.6999999999999886, , , , , , , , , , , , navNearRight.jpg, Go home., right, , , , , navNearRight.jpg, Go home., right, 2, 1, 33, 3, 49320823, Sun Aug 20 2017 12:06:43 GMT-0400 (Eastern Daylight Time), Road_Intersection, 60
, , , , , , , , , , , , left, 1, 1.315999999999974, , , , , , , , , , , , navNearLeft.jpg, Go left. , left, , , , , navNearLeft.jpg, Go left. , left, 2, 2, 34, 10, 49320823, Sun Aug 20 2017 12:06:43 GMT-0400 (Eastern Daylight Time), Road_Intersection, 60
, , , , , , , , , , , , left, 1, 1.25, , , , , , , , , , , , navFarLeft.jpg, Go right. , left, , , , , navFarLeft.jpg, Go right. , left, 2, 3, 35, 12, 49320823, Sun Aug 20 2017 12:06:43 GMT-0400 (Eastern Daylight Time), Road_Intersection, 60
, , , , , , , , , , , , left, 1, 1.1820000000000164, , , , , , , , , , , , navNearRight.jpg, Go left. , left, , , , , navNearRight.jpg, Go left. , left, 2, 4, 36, 11, 49320823, Sun Aug 20 2017 12:06:43 GMT-0400 (Eastern Daylight Time), Road_Intersection, 60
, , , , , , , , , , , , left, 1, 0.9329999999999927, , , , , , , , , , , , navNearRight.jpg, Go away. , left, , , , , navNearRight.jpg, Go away. , left, 2, 5, 37, 7, 49320823, Sun Aug 20 2017 12:06:43 GMT-0400 (Eastern Daylight Time), Road_Intersection, 60
, , , , , , , , , , , , left, 0, 1.3319999999999936, , , , , , , , , , , , navFarRight.jpg, Go home., right, , , , , navFarRight.jpg, Go home., right, 2, 6, 38, 1, 49320823, Sun Aug 20 2017 12:06:43 GMT-0400 (Eastern Daylight Time), Road_Intersection, 60
, , , , , , , , , , , , right, 1, 1.051999999999964, , , , , , , , , , , , navNearRight.jpg, Go right. , right, , , , , navNearRight.jpg, Go right. , right, 2, 7, 39, 15, 49320823, Sun Aug 20 2017 12:06:43 GMT-0400 (Eastern Daylight Time), Road_Intersection, 60
, , , , , , , , , , , , right, 0, 1.3830000000000382, , , , , , , , , , , , navFarRight.jpg, Go away. , left, , , , , navFarRight.jpg, Go away. , left, 2, 8, 40, 5, 49320823, Sun Aug 20 2017 12:06:43 GMT-0400 (Eastern Daylight Time), Road_Intersection, 60
, , , , , , , , , , , , right, 1, 1.2139999999999986, , , , , , , , , , , , navNearLeft.jpg, Go right. , right, , , , , navNearLeft.jpg, Go right. , right, 2, 9, 41, 14, 49320823, Sun Aug 20 2017 12:06:43 GMT-0400 (Eastern Daylight Time), Road_Intersection, 60
, , , , , , , , , , , , left, 1, 1.016999999999996, , , , , , , , , , , , navNearLeft.jpg, Go home., left, , , , , navNearLeft.jpg, Go home., left, 2, 10, 42, 2, 49320823, Sun Aug 20 2017 12:06:43 GMT-0400 (Eastern Daylight Time), Road_Intersection, 60
, , , , , , , , , , , , right, 1, 1.6340000000000146, , , , , , , , , , , , navFarLeft.jpg, Go left. , right, , , , , navFarLeft.jpg, Go left. , right, 2, 11, 43, 8, 49320823, Sun Aug 20 2017 12:06:43 GMT-0400 (Eastern Daylight Time), Road_Intersection, 60
, , , , , , , , , , , , left, 1, 2.7169999999999845, , , , , , , , , , , , navFarRight.jpg, Go right. , left, , , , , navFarRight.jpg, Go right. , left, 2, 12, 44, 13, 49320823, Sun Aug 20 2017 12:06:43 GMT-0400 (Eastern Daylight Time), Road_Intersection, 60
, , , , , , , , , , , , right, 1, 0.8990000000000009, , , , , , , , , , , , navFarRight.jpg, Go left. , right, , , , , navFarRight.jpg, Go left. , right, 2, 13, 45, 9, 49320823, Sun Aug 20 2017 12:06:43 GMT-0400 (Eastern Daylight Time), Road_Intersection, 60
, , , , , , , , , , , , left, 0, 2.966000000000008, , , , , , , , , , , , navFarLeft.jpg, Go away. , right, , , , , navFarLeft.jpg, Go away. , right, 2, 14, 46, 4, 49320823, Sun Aug 20 2017 12:06:43 GMT-0400 (Eastern Daylight Time), Road_Intersection, 60
, , , , , , , , , , , , right, 0, 1.7679999999999723, , , , , , , , , , , , navFarLeft.jpg, Go home., left, , , , , navFarLeft.jpg, Go home., left, 2, 15, 47, 0, 49320823, Sun Aug 20 2017 12:06:43 GMT-0400 (Eastern Daylight Time), Road_Intersection, 60
, , , , , , , , , , , , left, 1, 1.5980000000000132, , , , , , , , , , , , navNearLeft.jpg, Go home., left, , , , , navNearLeft.jpg, Go home., left, 3, 0, 48, 2, 49320823, Sun Aug 20 2017 12:06:43 GMT-0400 (Eastern Daylight Time), Road_Intersection, 60
, , , , , , , , , , , , right, 1, 1.9660000000000082, , , , , , , , , , , , navFarRight.jpg, Go left. , right, , , , , navFarRight.jpg, Go left. , right, 3, 1, 49, 9, 49320823, Sun Aug 20 2017 12:06:43 GMT-0400 (Eastern Daylight Time), Road_Intersection, 60
, , , , , , , , , , , , right, 1, 1.5300000000000296, , , , , , , , , , , , navFarLeft.jpg, Go left. , right, , , , , navFarLeft.jpg, Go left. , right, 3, 2, 50, 8, 49320823, Sun Aug 20 2017 12:06:43 GMT-0400 (Eastern Daylight Time), Road_Intersection, 60
, , , , , , , , , , , , left, 1, 0.7179999999999609, , , , , , , , , , , , navNearRight.jpg, Go left. , left, , , , , navNearRight.jpg, Go left. , left, 3, 3, 51, 11, 49320823, Sun Aug 20 2017 12:06:43 GMT-0400 (Eastern Daylight Time), Road_Intersection, 60
, , , , , , , , , , , , right, 1, 1.103999999999985, , , , , , , , , , , , navNearLeft.jpg, Go away. , right, , , , , navNearLeft.jpg, Go away. , right, 3, 4, 52, 6, 49320823, Sun Aug 20 2017 12:06:43 GMT-0400 (Eastern Daylight Time), Road_Intersection, 60
, , , , , , , , , , , , left, 1, 0.6819999999999595, , , , , , , , , , , , navNearLeft.jpg, Go left. , left, , , , , navNearLeft.jpg, Go left. , left, 3, 5, 53, 10, 49320823, Sun Aug 20 2017 12:06:43 GMT-0400 (Eastern Daylight Time), Road_Intersection, 60
, , , , , , , , , , , , right, 0, 1.5020000000000095, , , , , , , , , , , , navFarLeft.jpg, Go home., left, , , , , navFarLeft.jpg, Go home., left, 3, 6, 54, 0, 49320823, Sun Aug 20 2017 12:06:43 GMT-0400 (Eastern Daylight Time), Road_Intersection, 60
, , , , , , , , , , , , left, 1, 1.5430000000000064, , , , , , , , , , , , navFarLeft.jpg, Go right. , left, , , , , navFarLeft.jpg, Go right. , left, 3, 7, 55, 12, 49320823, Sun Aug 20 2017 12:06:43 GMT-0400 (Eastern Daylight Time), Road_Intersection, 60
, , , , , , , , , , , , right, 1, 1.0480000000000018, , , , , , , , , , , , navNearLeft.jpg, Go right. , right, , , , , navNearLeft.jpg, Go right. , right, 3, 8, 56, 14, 49320823, Sun Aug 20 2017 12:06:43 GMT-0400 (Eastern Daylight Time), Road_Intersection, 60
, , , , , , , , , , , , right, 1, 0.9159999999999968, , , , , , , , , , , , navNearRight.jpg, Go home., right, , , , , navNearRight.jpg, Go home., right, 3, 9, 57, 3, 49320823, Sun Aug 20 2017 12:06:43 GMT-0400 (Eastern Daylight Time), Road_Intersection, 60
, , , , , , , , , , , , left, 1, 1.6160000000000423, , , , , , , , , , , , navFarRight.jpg, Go right. , left, , , , , navFarRight.jpg, Go right. , left, 3, 10, 58, 13, 49320823, Sun Aug 20 2017 12:06:43 GMT-0400 (Eastern Daylight Time), Road_Intersection, 60
, , , , , , , , , , , , left, 0, 1.2010000000000218, , , , , , , , , , , , navFarLeft.jpg, Go away. , right, , , , , navFarLeft.jpg, Go away. , right, 3, 11, 59, 4, 49320823, Sun Aug 20 2017 12:06:43 GMT-0400 (Eastern Daylight Time), Road_Intersection, 60
, , , , , , , , , , , , right, 1, 0.8669999999999618, , , , , , , , , , , , navFarRight.jpg, Go home., right, , , , , navFarRight.jpg, Go home., right, 3, 12, 60, 1, 49320823, Sun Aug 20 2017 12:06:43 GMT-0400 (Eastern Daylight Time), Road_Intersection, 60
, , , , , , , , , , , , right, 1, 0.8179999999999836, , , , , , , , , , , , navNearRight.jpg, Go right. , right, , , , , navNearRight.jpg, Go right. , right, 3, 13, 61, 15, 49320823, Sun Aug 20 2017 12:06:43 GMT-0400 (Eastern Daylight Time), Road_Intersection, 60
, , , , , , , , , , , , right, 0, 2.3659999999999854, , , , , , , , , , , , navFarRight.jpg, Go away. , left, , , , , navFarRight.jpg, Go away. , left, 3, 14, 62, 5, 49320823, Sun Aug 20 2017 12:06:43 GMT-0400 (Eastern Daylight Time), Road_Intersection, 60
, , , , , , , , , , , , left, 1, 1.0330000000000155, , , , , , , , , , , , navNearRight.jpg, Go away. , left, , , , , navNearRight.jpg, Go away. , left, 3, 15, 63, 7, 49320823, Sun Aug 20 2017 12:06:43 GMT-0400 (Eastern Daylight Time), Road_Intersection, 60
