Continue.keys, Continue.rt, instructions_response.keys, instructions_response.rt, repeat_response.keys, repeat_response.rt, key_resp_5.keys, key_resp_5.rt, key_resp_2.keys, key_resp_2.rt, key_resp_4.keys, key_resp_4.rt, Trials_response.keys, Trials_response.corr, Trials_response.rt, Block_Continue.keys, Block_Continue.rt, Image, instructions_1_loop.thisRepN, instructions_1_loop.thisTrialN, instructions_1_loop.thisN, instructions_1_loop.thisIndex, instructions_2_repeat.thisRepN, instructions_2_repeat.thisTrialN, instructions_2_repeat.thisN, instructions_2_repeat.thisIndex, stim, prompt, answer, trials_2.thisRepN, trials_2.thisTrialN, trials_2.thisN, trials_2.thisIndex, stim, prompt, answer, trials.thisRepN, trials.thisTrialN, trials.thisN, trials.thisIndex, participant, date, expName, frameRate
space, 1.1659999999999986, space, 2.0500000000000007, , , , , , , , , , , , , , Slide15.JPG, 0, 0, 0, 0, , , , , , , , , , , , , , , , , , , 72765732, Tue Sep 05 2017 20:44:13 GMT-0400 (Eastern Daylight Time), Road_Intersection, 60
, , space, 18.883, , , , , , , , , , , , , , Slide16.JPG, 0, 1, 1, 1, , , , , , , , , , , , , , , , , , , 72765732, Tue Sep 05 2017 20:44:13 GMT-0400 (Eastern Daylight Time), Road_Intersection, 60
, , space, 1.233000000000004, , , , , , , , , , , , , , Slide17.JPG, 0, 2, 2, 2, , , , , , , , , , , , , , , , , , , 72765732, Tue Sep 05 2017 20:44:13 GMT-0400 (Eastern Daylight Time), Road_Intersection, 60
, , space, 0.5339999999999989, , , , , , , , , , , , , , Slide18.JPG, 0, 3, 3, 3, , , , , , , , , , , , , , , , , , , 72765732, Tue Sep 05 2017 20:44:13 GMT-0400 (Eastern Daylight Time), Road_Intersection, 60
, , space, 1.4650000000000034, , , , , , , , , , , , , , Slide19.JPG, 0, 4, 4, 4, , , , , , , , , , , , , , , , , , , 72765732, Tue Sep 05 2017 20:44:13 GMT-0400 (Eastern Daylight Time), Road_Intersection, 60
, , space, 608.767, , , , , , , , , , , , , , Slide20.JPG, 0, 5, 5, 5, , , , , , , , , , , , , , , , , , , 72765732, Tue Sep 05 2017 20:44:13 GMT-0400 (Eastern Daylight Time), Road_Intersection, 60
, , space, 3.5159999999999627, , , , , , , , , , , , , , Slide21.JPG, 0, 6, 6, 6, , , , , , , , , , , , , , , , , , , 72765732, Tue Sep 05 2017 20:44:13 GMT-0400 (Eastern Daylight Time), Road_Intersection, 60
, , space, 3.7169999999999845, , , , , , , , , , , , , , Slide22.JPG, 0, 7, 7, 7, , , , , , , , , , , , , , , , , , , 72765732, Tue Sep 05 2017 20:44:13 GMT-0400 (Eastern Daylight Time), Road_Intersection, 60
, , space, 2.58400000000006, , , , , , , , , , , , , , Slide23.JPG, 0, 8, 8, 8, , , , , , , , , , , , , , , , , , , 72765732, Tue Sep 05 2017 20:44:13 GMT-0400 (Eastern Daylight Time), Road_Intersection, 60
, , space, 1.615000000000009, , , , , , , , , , , , , , Slide24.JPG, 0, 9, 9, 9, , , , , , , , , , , , , , , , , , , 72765732, Tue Sep 05 2017 20:44:13 GMT-0400 (Eastern Daylight Time), Road_Intersection, 60
, , space, 2.75, , , , , , , , , , , , , , Slide25.JPG, 0, 10, 10, 10, , , , , , , , , , , , , , , , , , , 72765732, Tue Sep 05 2017 20:44:13 GMT-0400 (Eastern Daylight Time), Road_Intersection, 60
, , space, 1.25, , , , , , , , , , , , , , Slide26.JPG, 0, 11, 11, 11, , , , , , , , , , , , , , , , , , , 72765732, Tue Sep 05 2017 20:44:13 GMT-0400 (Eastern Daylight Time), Road_Intersection, 60
, , space, 1.1330000000000382, , , , , , , , , , , , , , Slide27.JPG, 0, 12, 12, 12, , , , , , , , , , , , , , , , , , , 72765732, Tue Sep 05 2017 20:44:13 GMT-0400 (Eastern Daylight Time), Road_Intersection, 60
, , space, 1.2509999999999764, , , , , , , , , , , , , , Slide28.JPG, 0, 13, 13, 13, , , , , , , , , , , , , , , , , , , 72765732, Tue Sep 05 2017 20:44:13 GMT-0400 (Eastern Daylight Time), Road_Intersection, 60
, , , , 0, 2.16700000000003, space, 3.298000000000002, left, 1.1790000000000873, , , , , , , , , , , , , , , , , navFarLeft.jpg, Go right., left, 0, 0, 0, 0, navFarLeft.jpg, Go right., left, , , , , 72765732, Tue Sep 05 2017 20:44:13 GMT-0400 (Eastern Daylight Time), Road_Intersection, 60
, , , , , , , , right, 0.9830000000000609, , , , , , , , , , , , , , , , , navNearLeft.jpg, Go away., right, 0, 1, 1, 1, navNearLeft.jpg, Go away., right, , , , , 72765732, Tue Sep 05 2017 20:44:13 GMT-0400 (Eastern Daylight Time), Road_Intersection, 60
, , , , , , , , right, 0.9490000000000691, , , , , , , , , , , , , , , , , navFarRight.jpg, Go left., right, 0, 2, 2, 2, navFarRight.jpg, Go left., right, , , , , 72765732, Tue Sep 05 2017 20:44:13 GMT-0400 (Eastern Daylight Time), Road_Intersection, 60
, , , , , , , , right, 0.7309999999999945, , , , , , , , , , , , , , , , , navNearRight.jpg, Go home. , right, 0, 3, 3, 3, navNearRight.jpg, Go home. , right, , , , , 72765732, Tue Sep 05 2017 20:44:13 GMT-0400 (Eastern Daylight Time), Road_Intersection, 60
, , , , , , , , left, 0.6649999999999636, , , , , , , , , , , , , , , , , navNearLeft.jpg, Go left., left, 0, 4, 4, 4, navNearLeft.jpg, Go left., left, , , , , 72765732, Tue Sep 05 2017 20:44:13 GMT-0400 (Eastern Daylight Time), Road_Intersection, 60
, , , , , , , , right, 0.7319999999999709, , , , , , , , , , , , , , , , , navNearRight.jpg, Go home., right, 0, 5, 5, 5, navNearRight.jpg, Go home., right, , , , , 72765732, Tue Sep 05 2017 20:44:13 GMT-0400 (Eastern Daylight Time), Road_Intersection, 60
, , , , , , , , right, 0.7980000000000018, , , , , , , , , , , , , , , , , navNearLeft.jpg, Go away., right, 0, 6, 6, 6, navNearLeft.jpg, Go away., right, , , , , 72765732, Tue Sep 05 2017 20:44:13 GMT-0400 (Eastern Daylight Time), Road_Intersection, 60
, , , , , , , , left, 0.9990000000000236, , , , , , , , , , , , , , , , , navFarLeft.jpg, Go right., left, 0, 7, 7, 7, navFarLeft.jpg, Go right., left, , , , , 72765732, Tue Sep 05 2017 20:44:13 GMT-0400 (Eastern Daylight Time), Road_Intersection, 60
, , , , , , , , , , space, 5.383000000000038, left, 1, 1.1999999999999318, , , , , , , , , , , , navFarLeft.jpg, Go right. , left, , , , , navFarLeft.jpg, Go right. , left, 0, 0, 0, 12, 72765732, Tue Sep 05 2017 20:44:13 GMT-0400 (Eastern Daylight Time), Road_Intersection, 60
, , , , , , , , , , , , left, 1, 0.7160000000000082, , , , , , , , , , , , navNearLeft.jpg, Go left. , left, , , , , navNearLeft.jpg, Go left. , left, 0, 1, 1, 10, 72765732, Tue Sep 05 2017 20:44:13 GMT-0400 (Eastern Daylight Time), Road_Intersection, 60
, , , , , , , , , , , , right, 1, 0.5489999999999782, , , , , , , , , , , , navFarLeft.jpg, Go away. , right, , , , , navFarLeft.jpg, Go away. , right, 0, 2, 2, 4, 72765732, Tue Sep 05 2017 20:44:13 GMT-0400 (Eastern Daylight Time), Road_Intersection, 60
, , , , , , , , , , , , right, 1, 0.7999999999999545, , , , , , , , , , , , navNearLeft.jpg, Go away. , right, , , , , navNearLeft.jpg, Go away. , right, 0, 3, 3, 6, 72765732, Tue Sep 05 2017 20:44:13 GMT-0400 (Eastern Daylight Time), Road_Intersection, 60
, , , , , , , , , , , , left, 0, 0.9830000000000609, , , , , , , , , , , , navFarRight.jpg, Go left. , right, , , , , navFarRight.jpg, Go left. , right, 0, 4, 4, 9, 72765732, Tue Sep 05 2017 20:44:13 GMT-0400 (Eastern Daylight Time), Road_Intersection, 60
, , , , , , , , , , , , left, 1, 0.9679999999999609, , , , , , , , , , , , navNearRight.jpg, Go left. , left, , , , , navNearRight.jpg, Go left. , left, 0, 5, 5, 11, 72765732, Tue Sep 05 2017 20:44:13 GMT-0400 (Eastern Daylight Time), Road_Intersection, 60
, , , , , , , , , , , , right, 1, 0.7659999999999627, , , , , , , , , , , , navNearRight.jpg, Go right. , right, , , , , navNearRight.jpg, Go right. , right, 0, 6, 6, 15, 72765732, Tue Sep 05 2017 20:44:13 GMT-0400 (Eastern Daylight Time), Road_Intersection, 60
, , , , , , , , , , , , left, 1, 1.399000000000001, , , , , , , , , , , , navFarRight.jpg, Go away. , left, , , , , navFarRight.jpg, Go away. , left, 0, 7, 7, 5, 72765732, Tue Sep 05 2017 20:44:13 GMT-0400 (Eastern Daylight Time), Road_Intersection, 60
, , , , , , , , , , , , left, 1, 0.9660000000000082, , , , , , , , , , , , navNearRight.jpg, Go away. , left, , , , , navNearRight.jpg, Go away. , left, 0, 8, 8, 7, 72765732, Tue Sep 05 2017 20:44:13 GMT-0400 (Eastern Daylight Time), Road_Intersection, 60
, , , , , , , , , , , , left, 1, 1.3840000000000146, , , , , , , , , , , , navFarRight.jpg, Go right. , left, , , , , navFarRight.jpg, Go right. , left, 0, 9, 9, 13, 72765732, Tue Sep 05 2017 20:44:13 GMT-0400 (Eastern Daylight Time), Road_Intersection, 60
, , , , , , , , , , , , right, 1, 0.8659999999999854, , , , , , , , , , , , navNearLeft.jpg, Go right. , right, , , , , navNearLeft.jpg, Go right. , right, 0, 10, 10, 14, 72765732, Tue Sep 05 2017 20:44:13 GMT-0400 (Eastern Daylight Time), Road_Intersection, 60
, , , , , , , , , , , , left, 1, 0.7340000000000373, , , , , , , , , , , , navNearLeft.jpg, Go home., left, , , , , navNearLeft.jpg, Go home., left, 0, 11, 11, 2, 72765732, Tue Sep 05 2017 20:44:13 GMT-0400 (Eastern Daylight Time), Road_Intersection, 60
, , , , , , , , , , , , right, 1, 0.8839999999999009, , , , , , , , , , , , navFarLeft.jpg, Go left. , right, , , , , navFarLeft.jpg, Go left. , right, 0, 12, 12, 8, 72765732, Tue Sep 05 2017 20:44:13 GMT-0400 (Eastern Daylight Time), Road_Intersection, 60
, , , , , , , , , , , , right, 1, 0.8010000000000446, , , , , , , , , , , , navNearRight.jpg, Go home., right, , , , , navNearRight.jpg, Go home., right, 0, 13, 13, 3, 72765732, Tue Sep 05 2017 20:44:13 GMT-0400 (Eastern Daylight Time), Road_Intersection, 60
, , , , , , , , , , , , right, 0, 0.9660000000000082, , , , , , , , , , , , navFarLeft.jpg, Go home., left, , , , , navFarLeft.jpg, Go home., left, 0, 14, 14, 0, 72765732, Tue Sep 05 2017 20:44:13 GMT-0400 (Eastern Daylight Time), Road_Intersection, 60
, , , , , , , , , , , , right, 1, 1.5150000000001, , , , , , , , , , , , navFarRight.jpg, Go home., right, , , , , navFarRight.jpg, Go home., right, 0, 15, 15, 1, 72765732, Tue Sep 05 2017 20:44:13 GMT-0400 (Eastern Daylight Time), Road_Intersection, 60
, , , , , , , , , , , , right, 1, 0.7990000000000919, , , , , , , , , , , , navNearLeft.jpg, Go right. , right, , , , , navNearLeft.jpg, Go right. , right, 1, 0, 16, 14, 72765732, Tue Sep 05 2017 20:44:13 GMT-0400 (Eastern Daylight Time), Road_Intersection, 60
, , , , , , , , , , , , left, 1, 0.7319999999999709, , , , , , , , , , , , navNearRight.jpg, Go away. , left, , , , , navNearRight.jpg, Go away. , left, 1, 1, 17, 7, 72765732, Tue Sep 05 2017 20:44:13 GMT-0400 (Eastern Daylight Time), Road_Intersection, 60
, , , , , , , , , , , , right, 1, 0.91700000000003, , , , , , , , , , , , navFarRight.jpg, Go home., right, , , , , navFarRight.jpg, Go home., right, 1, 2, 18, 1, 72765732, Tue Sep 05 2017 20:44:13 GMT-0400 (Eastern Daylight Time), Road_Intersection, 60
, , , , , , , , , , , , right, 1, 1, , , , , , , , , , , , navNearLeft.jpg, Go away. , right, , , , , navNearLeft.jpg, Go away. , right, 1, 3, 19, 6, 72765732, Tue Sep 05 2017 20:44:13 GMT-0400 (Eastern Daylight Time), Road_Intersection, 60
, , , , , , , , , , , , left, 1, 0.7989999999999782, , , , , , , , , , , , navNearLeft.jpg, Go left. , left, , , , , navNearLeft.jpg, Go left. , left, 1, 4, 20, 10, 72765732, Tue Sep 05 2017 20:44:13 GMT-0400 (Eastern Daylight Time), Road_Intersection, 60
, , , , , , , , , , , , right, 1, 0.9850000000000136, , , , , , , , , , , , navFarLeft.jpg, Go left. , right, , , , , navFarLeft.jpg, Go left. , right, 1, 5, 21, 8, 72765732, Tue Sep 05 2017 20:44:13 GMT-0400 (Eastern Daylight Time), Road_Intersection, 60
, , , , , , , , , , , , right, 1, 0.9500000000000455, , , , , , , , , , , , navFarLeft.jpg, Go away. , right, , , , , navFarLeft.jpg, Go away. , right, 1, 6, 22, 4, 72765732, Tue Sep 05 2017 20:44:13 GMT-0400 (Eastern Daylight Time), Road_Intersection, 60
, , , , , , , , , , , , right, 1, 1.7660000000000764, , , , , , , , , , , , navFarRight.jpg, Go left. , right, , , , , navFarRight.jpg, Go left. , right, 1, 7, 23, 9, 72765732, Tue Sep 05 2017 20:44:13 GMT-0400 (Eastern Daylight Time), Road_Intersection, 60
, , , , , , , , , , , , left, 1, 0.8990000000000009, , , , , , , , , , , , navFarRight.jpg, Go right. , left, , , , , navFarRight.jpg, Go right. , left, 1, 8, 24, 13, 72765732, Tue Sep 05 2017 20:44:13 GMT-0400 (Eastern Daylight Time), Road_Intersection, 60
, , , , , , , , , , , , right, 1, 0.7330000000000609, , , , , , , , , , , , navNearRight.jpg, Go home., right, , , , , navNearRight.jpg, Go home., right, 1, 9, 25, 3, 72765732, Tue Sep 05 2017 20:44:13 GMT-0400 (Eastern Daylight Time), Road_Intersection, 60
, , , , , , , , , , , , right, 1, 0.6340000000000146, , , , , , , , , , , , navNearRight.jpg, Go right. , right, , , , , navNearRight.jpg, Go right. , right, 1, 10, 26, 15, 72765732, Tue Sep 05 2017 20:44:13 GMT-0400 (Eastern Daylight Time), Road_Intersection, 60
, , , , , , , , , , , , left, 1, 1.1019999999999754, , , , , , , , , , , , navFarLeft.jpg, Go home., left, , , , , navFarLeft.jpg, Go home., left, 1, 11, 27, 0, 72765732, Tue Sep 05 2017 20:44:13 GMT-0400 (Eastern Daylight Time), Road_Intersection, 60
, , , , , , , , , , , , left, 1, 0.7010000000000218, , , , , , , , , , , , navNearRight.jpg, Go left. , left, , , , , navNearRight.jpg, Go left. , left, 1, 12, 28, 11, 72765732, Tue Sep 05 2017 20:44:13 GMT-0400 (Eastern Daylight Time), Road_Intersection, 60
, , , , , , , , , , , , left, 1, 0.9819999999999709, , , , , , , , , , , , navFarRight.jpg, Go away. , left, , , , , navFarRight.jpg, Go away. , left, 1, 13, 29, 5, 72765732, Tue Sep 05 2017 20:44:13 GMT-0400 (Eastern Daylight Time), Road_Intersection, 60
, , , , , , , , , , , , right, 0, 0.59800000000007, , , , , , , , , , , , navFarLeft.jpg, Go right. , left, , , , , navFarLeft.jpg, Go right. , left, 1, 14, 30, 12, 72765732, Tue Sep 05 2017 20:44:13 GMT-0400 (Eastern Daylight Time), Road_Intersection, 60
, , , , , , , , , , , , left, 1, 1.00100000000009, , , , , , , , , , , , navNearLeft.jpg, Go home., left, , , , , navNearLeft.jpg, Go home., left, 1, 15, 31, 2, 72765732, Tue Sep 05 2017 20:44:13 GMT-0400 (Eastern Daylight Time), Road_Intersection, 60
, , , , , , , , , , , , right, 1, 0.5339999999999918, , , , , , , , , , , , navNearLeft.jpg, Go right. , right, , , , , navNearLeft.jpg, Go right. , right, 2, 0, 32, 14, 72765732, Tue Sep 05 2017 20:44:13 GMT-0400 (Eastern Daylight Time), Road_Intersection, 60
, , , , , , , , , , , , right, 1, 1.150000000000091, , , , , , , , , , , , navNearLeft.jpg, Go away. , right, , , , , navNearLeft.jpg, Go away. , right, 2, 1, 33, 6, 72765732, Tue Sep 05 2017 20:44:13 GMT-0400 (Eastern Daylight Time), Road_Intersection, 60
, , , , , , , , , , , , left, 1, 1.0159999999999627, , , , , , , , , , , , navNearLeft.jpg, Go home., left, , , , , navNearLeft.jpg, Go home., left, 2, 2, 34, 2, 72765732, Tue Sep 05 2017 20:44:13 GMT-0400 (Eastern Daylight Time), Road_Intersection, 60
, , , , , , , , , , , , right, 1, 1.16700000000003, , , , , , , , , , , , navFarLeft.jpg, Go left. , right, , , , , navFarLeft.jpg, Go left. , right, 2, 3, 35, 8, 72765732, Tue Sep 05 2017 20:44:13 GMT-0400 (Eastern Daylight Time), Road_Intersection, 60
, , , , , , , , , , , , left, 1, 1.2000000000000455, , , , , , , , , , , , navFarRight.jpg, Go right. , left, , , , , navFarRight.jpg, Go right. , left, 2, 4, 36, 13, 72765732, Tue Sep 05 2017 20:44:13 GMT-0400 (Eastern Daylight Time), Road_Intersection, 60
, , , , , , , , , , , , left, 1, 0.9180000000000064, , , , , , , , , , , , navFarLeft.jpg, Go home., left, , , , , navFarLeft.jpg, Go home., left, 2, 5, 37, 0, 72765732, Tue Sep 05 2017 20:44:13 GMT-0400 (Eastern Daylight Time), Road_Intersection, 60
, , , , , , , , , , , , right, 1, 0.599999999999909, , , , , , , , , , , , navFarLeft.jpg, Go away. , right, , , , , navFarLeft.jpg, Go away. , right, 2, 6, 38, 4, 72765732, Tue Sep 05 2017 20:44:13 GMT-0400 (Eastern Daylight Time), Road_Intersection, 60
, , , , , , , , , , , , right, 1, 0.6490000000000009, , , , , , , , , , , , navNearRight.jpg, Go right. , right, , , , , navNearRight.jpg, Go right. , right, 2, 7, 39, 15, 72765732, Tue Sep 05 2017 20:44:13 GMT-0400 (Eastern Daylight Time), Road_Intersection, 60
, , , , , , , , , , , , left, 1, 1.1159999999999854, , , , , , , , , , , , navFarLeft.jpg, Go right. , left, , , , , navFarLeft.jpg, Go right. , left, 2, 8, 40, 12, 72765732, Tue Sep 05 2017 20:44:13 GMT-0400 (Eastern Daylight Time), Road_Intersection, 60
, , , , , , , , , , , , right, 1, 0.9649999999999181, , , , , , , , , , , , navFarRight.jpg, Go home., right, , , , , navFarRight.jpg, Go home., right, 2, 9, 41, 1, 72765732, Tue Sep 05 2017 20:44:13 GMT-0400 (Eastern Daylight Time), Road_Intersection, 60
, , , , , , , , , , , , right, 1, 0.6150000000000091, , , , , , , , , , , , navNearRight.jpg, Go home., right, , , , , navNearRight.jpg, Go home., right, 2, 10, 42, 3, 72765732, Tue Sep 05 2017 20:44:13 GMT-0400 (Eastern Daylight Time), Road_Intersection, 60
, , , , , , , , , , , , left, 1, 0.7160000000000082, , , , , , , , , , , , navNearRight.jpg, Go away. , left, , , , , navNearRight.jpg, Go away. , left, 2, 11, 43, 7, 72765732, Tue Sep 05 2017 20:44:13 GMT-0400 (Eastern Daylight Time), Road_Intersection, 60
, , , , , , , , , , , , left, 1, 0.8840000000000146, , , , , , , , , , , , navFarRight.jpg, Go away. , left, , , , , navFarRight.jpg, Go away. , left, 2, 12, 44, 5, 72765732, Tue Sep 05 2017 20:44:13 GMT-0400 (Eastern Daylight Time), Road_Intersection, 60
, , , , , , , , , , , , left, 1, 0.8170000000000073, , , , , , , , , , , , navNearRight.jpg, Go left. , left, , , , , navNearRight.jpg, Go left. , left, 2, 13, 45, 11, 72765732, Tue Sep 05 2017 20:44:13 GMT-0400 (Eastern Daylight Time), Road_Intersection, 60
, , , , , , , , , , , , right, 1, 1.0489999999999782, , , , , , , , , , , , navFarRight.jpg, Go left. , right, , , , , navFarRight.jpg, Go left. , right, 2, 14, 46, 9, 72765732, Tue Sep 05 2017 20:44:13 GMT-0400 (Eastern Daylight Time), Road_Intersection, 60
, , , , , , , , , , , , left, 1, 0.6820000000000164, , , , , , , , , , , , navNearLeft.jpg, Go left. , left, , , , , navNearLeft.jpg, Go left. , left, 2, 15, 47, 10, 72765732, Tue Sep 05 2017 20:44:13 GMT-0400 (Eastern Daylight Time), Road_Intersection, 60
, , , , , , , , , , , , right, 0, 0.9840000000000373, , , , , , , , , , , , navFarRight.jpg, Go right. , left, , , , , navFarRight.jpg, Go right. , left, 3, 0, 48, 13, 72765732, Tue Sep 05 2017 20:44:13 GMT-0400 (Eastern Daylight Time), Road_Intersection, 60
, , , , , , , , , , , , left, 1, 0.7519999999999527, , , , , , , , , , , , navNearRight.jpg, Go left. , left, , , , , navNearRight.jpg, Go left. , left, 3, 1, 49, 11, 72765732, Tue Sep 05 2017 20:44:13 GMT-0400 (Eastern Daylight Time), Road_Intersection, 60
, , , , , , , , , , , , left, 1, 0.9320000000000164, , , , , , , , , , , , navNearRight.jpg, Go away. , left, , , , , navNearRight.jpg, Go away. , left, 3, 2, 50, 7, 72765732, Tue Sep 05 2017 20:44:13 GMT-0400 (Eastern Daylight Time), Road_Intersection, 60
, , , , , , , , , , , , right, 1, 0.7009999999999081, , , , , , , , , , , , navNearLeft.jpg, Go right. , right, , , , , navNearLeft.jpg, Go right. , right, 3, 3, 51, 14, 72765732, Tue Sep 05 2017 20:44:13 GMT-0400 (Eastern Daylight Time), Road_Intersection, 60
, , , , , , , , , , , , right, 1, 1.41599999999994, , , , , , , , , , , , navFarRight.jpg, Go home., right, , , , , navFarRight.jpg, Go home., right, 3, 4, 52, 1, 72765732, Tue Sep 05 2017 20:44:13 GMT-0400 (Eastern Daylight Time), Road_Intersection, 60
, , , , , , , , , , , , right, 1, 0.6840000000000828, , , , , , , , , , , , navNearRight.jpg, Go right. , right, , , , , navNearRight.jpg, Go right. , right, 3, 5, 53, 15, 72765732, Tue Sep 05 2017 20:44:13 GMT-0400 (Eastern Daylight Time), Road_Intersection, 60
, , , , , , , , , , , , right, 1, 1.483000000000061, , , , , , , , , , , , navFarLeft.jpg, Go left. , right, , , , , navFarLeft.jpg, Go left. , right, 3, 6, 54, 8, 72765732, Tue Sep 05 2017 20:44:13 GMT-0400 (Eastern Daylight Time), Road_Intersection, 60
, , , , , , , , , , , , left, 1, 0.75, , , , , , , , , , , , navFarLeft.jpg, Go home., left, , , , , navFarLeft.jpg, Go home., left, 3, 7, 55, 0, 72765732, Tue Sep 05 2017 20:44:13 GMT-0400 (Eastern Daylight Time), Road_Intersection, 60
, , , , , , , , , , , , right, 1, 0.7830000000000155, , , , , , , , , , , , navNearLeft.jpg, Go away. , right, , , , , navNearLeft.jpg, Go away. , right, 3, 8, 56, 6, 72765732, Tue Sep 05 2017 20:44:13 GMT-0400 (Eastern Daylight Time), Road_Intersection, 60
, , , , , , , , , , , , right, 1, 0.7820000000000391, , , , , , , , , , , , navNearRight.jpg, Go home., right, , , , , navNearRight.jpg, Go home., right, 3, 9, 57, 3, 72765732, Tue Sep 05 2017 20:44:13 GMT-0400 (Eastern Daylight Time), Road_Intersection, 60
, , , , , , , , , , , , right, 1, 1.08299999999997, , , , , , , , , , , , navFarRight.jpg, Go left. , right, , , , , navFarRight.jpg, Go left. , right, 3, 10, 58, 9, 72765732, Tue Sep 05 2017 20:44:13 GMT-0400 (Eastern Daylight Time), Road_Intersection, 60
, , , , , , , , , , , , left, 1, 0.97199999999998, , , , , , , , , , , , navNearLeft.jpg, Go left. , left, , , , , navNearLeft.jpg, Go left. , left, 3, 11, 59, 10, 72765732, Tue Sep 05 2017 20:44:13 GMT-0400 (Eastern Daylight Time), Road_Intersection, 60
, , , , , , , , , , , , right, 0, 1.1329999999999245, , , , , , , , , , , , navFarLeft.jpg, Go right. , left, , , , , navFarLeft.jpg, Go right. , left, 3, 12, 60, 12, 72765732, Tue Sep 05 2017 20:44:13 GMT-0400 (Eastern Daylight Time), Road_Intersection, 60
, , , , , , , , , , , , right, 1, 0.8839999999999009, , , , , , , , , , , , navFarLeft.jpg, Go away. , right, , , , , navFarLeft.jpg, Go away. , right, 3, 13, 61, 4, 72765732, Tue Sep 05 2017 20:44:13 GMT-0400 (Eastern Daylight Time), Road_Intersection, 60
, , , , , , , , , , , , left, 1, 1.0489999999999782, , , , , , , , , , , , navFarRight.jpg, Go away. , left, , , , , navFarRight.jpg, Go away. , left, 3, 14, 62, 5, 72765732, Tue Sep 05 2017 20:44:13 GMT-0400 (Eastern Daylight Time), Road_Intersection, 60
, , , , , , , , , , , , left, 1, 0.9169999999999163, , , , , , , , , , , , navNearLeft.jpg, Go home., left, , , , , navNearLeft.jpg, Go home., left, 3, 15, 63, 2, 72765732, Tue Sep 05 2017 20:44:13 GMT-0400 (Eastern Daylight Time), Road_Intersection, 60
