Continue.keys, Continue.rt, instructions_response.keys, instructions_response.rt, repeat_response.keys, repeat_response.rt, key_resp_5.keys, key_resp_5.rt, key_resp_2.keys, key_resp_2.rt, key_resp_4.keys, key_resp_4.rt, Trials_response.keys, Trials_response.corr, Trials_response.rt, Block_Continue.keys, Block_Continue.rt, Image, instructions_1_loop.thisRepN, instructions_1_loop.thisTrialN, instructions_1_loop.thisN, instructions_1_loop.thisIndex, instructions_2_repeat.thisRepN, instructions_2_repeat.thisTrialN, instructions_2_repeat.thisN, instructions_2_repeat.thisIndex, stim, prompt, answer, trials_2.thisRepN, trials_2.thisTrialN, trials_2.thisN, trials_2.thisIndex, stim, prompt, answer, trials.thisRepN, trials.thisTrialN, trials.thisN, trials.thisIndex, participant, date, expName, frameRate
space, 2.2490000000000023, space, 5.180999999999997, , , , , , , , , , , , , , Slide15.JPG, 0, 0, 0, 0, , , , , , , , , , , , , , , , , , , 7889786, Wed Aug 23 2017 16:10:40 GMT-0400 (Eastern Daylight Time), Road_Intersection, 60
, , space, 12.029000000000003, , , , , , , , , , , , , , Slide16.JPG, 0, 1, 1, 1, , , , , , , , , , , , , , , , , , , 7889786, Wed Aug 23 2017 16:10:40 GMT-0400 (Eastern Daylight Time), Road_Intersection, 60
, , space, 3.3320000000000007, , , , , , , , , , , , , , Slide17.JPG, 0, 2, 2, 2, , , , , , , , , , , , , , , , , , , 7889786, Wed Aug 23 2017 16:10:40 GMT-0400 (Eastern Daylight Time), Road_Intersection, 60
, , space, 1.5840000000000032, , , , , , , , , , , , , , Slide18.JPG, 0, 3, 3, 3, , , , , , , , , , , , , , , , , , , 7889786, Wed Aug 23 2017 16:10:40 GMT-0400 (Eastern Daylight Time), Road_Intersection, 60
, , space, 9.497000000000007, , , , , , , , , , , , , , Slide19.JPG, 0, 4, 4, 4, , , , , , , , , , , , , , , , , , , 7889786, Wed Aug 23 2017 16:10:40 GMT-0400 (Eastern Daylight Time), Road_Intersection, 60
, , space, 10.47999999999999, , , , , , , , , , , , , , Slide20.JPG, 0, 5, 5, 5, , , , , , , , , , , , , , , , , , , 7889786, Wed Aug 23 2017 16:10:40 GMT-0400 (Eastern Daylight Time), Road_Intersection, 60
, , space, 5.015000000000001, , , , , , , , , , , , , , Slide21.JPG, 0, 6, 6, 6, , , , , , , , , , , , , , , , , , , 7889786, Wed Aug 23 2017 16:10:40 GMT-0400 (Eastern Daylight Time), Road_Intersection, 60
, , space, 16.480999999999995, , , , , , , , , , , , , , Slide22.JPG, 0, 7, 7, 7, , , , , , , , , , , , , , , , , , , 7889786, Wed Aug 23 2017 16:10:40 GMT-0400 (Eastern Daylight Time), Road_Intersection, 60
, , space, 6.445999999999998, , , , , , , , , , , , , , Slide23.JPG, 0, 8, 8, 8, , , , , , , , , , , , , , , , , , , 7889786, Wed Aug 23 2017 16:10:40 GMT-0400 (Eastern Daylight Time), Road_Intersection, 60
, , space, 2.832000000000008, , , , , , , , , , , , , , Slide24.JPG, 0, 9, 9, 9, , , , , , , , , , , , , , , , , , , 7889786, Wed Aug 23 2017 16:10:40 GMT-0400 (Eastern Daylight Time), Road_Intersection, 60
, , space, 4.1980000000000075, , , , , , , , , , , , , , Slide25.JPG, 0, 10, 10, 10, , , , , , , , , , , , , , , , , , , 7889786, Wed Aug 23 2017 16:10:40 GMT-0400 (Eastern Daylight Time), Road_Intersection, 60
, , space, 4.515000000000001, , , , , , , , , , , , , , Slide26.JPG, 0, 11, 11, 11, , , , , , , , , , , , , , , , , , , 7889786, Wed Aug 23 2017 16:10:40 GMT-0400 (Eastern Daylight Time), Road_Intersection, 60
, , space, 4.699000000000012, , , , , , , , , , , , , , Slide27.JPG, 0, 12, 12, 12, , , , , , , , , , , , , , , , , , , 7889786, Wed Aug 23 2017 16:10:40 GMT-0400 (Eastern Daylight Time), Road_Intersection, 60
, , space, 7.263000000000005, , , , , , , , , , , , , , Slide28.JPG, 0, 13, 13, 13, , , , , , , , , , , , , , , , , , , 7889786, Wed Aug 23 2017 16:10:40 GMT-0400 (Eastern Daylight Time), Road_Intersection, 60
, , , , 0, 4.431999999999988, space, 7.71599999999998, right, 3.8810000000000002, , , , , , , , , , , , , , , , , navFarLeft.jpg, Go right., left, 0, 0, 0, 0, navFarLeft.jpg, Go right., left, , , , , 7889786, Wed Aug 23 2017 16:10:40 GMT-0400 (Eastern Daylight Time), Road_Intersection, 60
, , , , , , , , right, 5.5800000000000125, , , , , , , , , , , , , , , , , navNearLeft.jpg, Go away., right, 0, 1, 1, 1, navNearLeft.jpg, Go away., right, , , , , 7889786, Wed Aug 23 2017 16:10:40 GMT-0400 (Eastern Daylight Time), Road_Intersection, 60
, , , , , , , , right, 3.7139999999999986, , , , , , , , , , , , , , , , , navFarRight.jpg, Go left., right, 0, 2, 2, 2, navFarRight.jpg, Go left., right, , , , , 7889786, Wed Aug 23 2017 16:10:40 GMT-0400 (Eastern Daylight Time), Road_Intersection, 60
, , , , , , , , right, 2.4659999999999798, , , , , , , , , , , , , , , , , navNearRight.jpg, Go home. , right, 0, 3, 3, 3, navNearRight.jpg, Go home. , right, , , , , 7889786, Wed Aug 23 2017 16:10:40 GMT-0400 (Eastern Daylight Time), Road_Intersection, 60
, , , , , , , , left, 1.4989999999999952, , , , , , , , , , , , , , , , , navNearLeft.jpg, Go left., left, 0, 4, 4, 4, navNearLeft.jpg, Go left., left, , , , , 7889786, Wed Aug 23 2017 16:10:40 GMT-0400 (Eastern Daylight Time), Road_Intersection, 60
, , , , , , , , right, 1.0320000000000107, , , , , , , , , , , , , , , , , navNearRight.jpg, Go home., right, 0, 5, 5, 5, navNearRight.jpg, Go home., right, , , , , 7889786, Wed Aug 23 2017 16:10:40 GMT-0400 (Eastern Daylight Time), Road_Intersection, 60
, , , , , , , , right, 2.966000000000008, , , , , , , , , , , , , , , , , navNearLeft.jpg, Go away., right, 0, 6, 6, 6, navNearLeft.jpg, Go away., right, , , , , 7889786, Wed Aug 23 2017 16:10:40 GMT-0400 (Eastern Daylight Time), Road_Intersection, 60
, , , , , , , , left, 5.097999999999985, , , , , , , , , , , , , , , , , navFarLeft.jpg, Go right., left, 0, 7, 7, 7, navFarLeft.jpg, Go right., left, , , , , 7889786, Wed Aug 23 2017 16:10:40 GMT-0400 (Eastern Daylight Time), Road_Intersection, 60
, , , , , , , , , , space, 36.20399999999998, right, 1, 4.0639999999999645, , , , , , , , , , , , navFarRight.jpg, Go left. , right, , , , , navFarRight.jpg, Go left. , right, 0, 0, 0, 9, 7889786, Wed Aug 23 2017 16:10:40 GMT-0400 (Eastern Daylight Time), Road_Intersection, 60
, , , , , , , , , , , , right, 1, 0.9839999999999804, , , , , , , , , , , , navNearRight.jpg, Go home., right, , , , , navNearRight.jpg, Go home., right, 0, 1, 1, 3, 7889786, Wed Aug 23 2017 16:10:40 GMT-0400 (Eastern Daylight Time), Road_Intersection, 60
, , , , , , , , , , , , left, 1, 1.132000000000005, , , , , , , , , , , , navNearRight.jpg, Go left. , left, , , , , navNearRight.jpg, Go left. , left, 0, 2, 2, 11, 7889786, Wed Aug 23 2017 16:10:40 GMT-0400 (Eastern Daylight Time), Road_Intersection, 60
, , , , , , , , , , , , left, 1, 3.1499999999999773, , , , , , , , , , , , navFarLeft.jpg, Go right. , left, , , , , navFarLeft.jpg, Go right. , left, 0, 3, 3, 12, 7889786, Wed Aug 23 2017 16:10:40 GMT-0400 (Eastern Daylight Time), Road_Intersection, 60
, , , , , , , , , , , , right, 1, 2.9490000000000123, , , , , , , , , , , , navFarRight.jpg, Go home., right, , , , , navFarRight.jpg, Go home., right, 0, 4, 4, 1, 7889786, Wed Aug 23 2017 16:10:40 GMT-0400 (Eastern Daylight Time), Road_Intersection, 60
, , , , , , , , , , , , left, 1, 1.565999999999974, , , , , , , , , , , , navNearLeft.jpg, Go left. , left, , , , , navNearLeft.jpg, Go left. , left, 0, 5, 5, 10, 7889786, Wed Aug 23 2017 16:10:40 GMT-0400 (Eastern Daylight Time), Road_Intersection, 60
, , , , , , , , , , , , left, 1, 4.114000000000033, , , , , , , , , , , , navFarLeft.jpg, Go home., left, , , , , navFarLeft.jpg, Go home., left, 0, 6, 6, 0, 7889786, Wed Aug 23 2017 16:10:40 GMT-0400 (Eastern Daylight Time), Road_Intersection, 60
, , , , , , , , , , , , right, 1, 4.932000000000016, , , , , , , , , , , , navFarLeft.jpg, Go left. , right, , , , , navFarLeft.jpg, Go left. , right, 0, 7, 7, 8, 7889786, Wed Aug 23 2017 16:10:40 GMT-0400 (Eastern Daylight Time), Road_Intersection, 60
, , , , , , , , , , , , right, 1, 4.531999999999982, , , , , , , , , , , , navFarLeft.jpg, Go away. , right, , , , , navFarLeft.jpg, Go away. , right, 0, 8, 8, 4, 7889786, Wed Aug 23 2017 16:10:40 GMT-0400 (Eastern Daylight Time), Road_Intersection, 60
, , , , , , , , , , , , right, 1, 2.6829999999999927, , , , , , , , , , , , navNearLeft.jpg, Go away. , right, , , , , navNearLeft.jpg, Go away. , right, 0, 9, 9, 6, 7889786, Wed Aug 23 2017 16:10:40 GMT-0400 (Eastern Daylight Time), Road_Intersection, 60
, , , , , , , , , , , , right, 1, 1.483000000000004, , , , , , , , , , , , navNearRight.jpg, Go right. , right, , , , , navNearRight.jpg, Go right. , right, 0, 10, 10, 15, 7889786, Wed Aug 23 2017 16:10:40 GMT-0400 (Eastern Daylight Time), Road_Intersection, 60
, , , , , , , , , , , , left, 1, 1.4809999999999945, , , , , , , , , , , , navNearLeft.jpg, Go home., left, , , , , navNearLeft.jpg, Go home., left, 0, 11, 11, 2, 7889786, Wed Aug 23 2017 16:10:40 GMT-0400 (Eastern Daylight Time), Road_Intersection, 60
, , , , , , , , , , , , left, 1, 3.066000000000031, , , , , , , , , , , , navFarRight.jpg, Go right. , left, , , , , navFarRight.jpg, Go right. , left, 0, 12, 12, 13, 7889786, Wed Aug 23 2017 16:10:40 GMT-0400 (Eastern Daylight Time), Road_Intersection, 60
, , , , , , , , , , , , left, 1, 6.115000000000009, , , , , , , , , , , , navFarRight.jpg, Go away. , left, , , , , navFarRight.jpg, Go away. , left, 0, 13, 13, 5, 7889786, Wed Aug 23 2017 16:10:40 GMT-0400 (Eastern Daylight Time), Road_Intersection, 60
, , , , , , , , , , , , left, 1, 1.9010000000000105, , , , , , , , , , , , navNearRight.jpg, Go away. , left, , , , , navNearRight.jpg, Go away. , left, 0, 14, 14, 7, 7889786, Wed Aug 23 2017 16:10:40 GMT-0400 (Eastern Daylight Time), Road_Intersection, 60
, , , , , , , , , , , , right, 1, 1.231999999999971, , , , , , , , , , , , navNearLeft.jpg, Go right. , right, , , , , navNearLeft.jpg, Go right. , right, 0, 15, 15, 14, 7889786, Wed Aug 23 2017 16:10:40 GMT-0400 (Eastern Daylight Time), Road_Intersection, 60
, , , , , , , , , , , , left, 1, 1.882000000000005, , , , , , , , , , , , navFarRight.jpg, Go away. , left, , , , , navFarRight.jpg, Go away. , left, 1, 0, 16, 5, 7889786, Wed Aug 23 2017 16:10:40 GMT-0400 (Eastern Daylight Time), Road_Intersection, 60
, , , , , , , , , , , , right, 1, 1.6999999999999886, , , , , , , , , , , , navNearLeft.jpg, Go away. , right, , , , , navNearLeft.jpg, Go away. , right, 1, 1, 17, 6, 7889786, Wed Aug 23 2017 16:10:40 GMT-0400 (Eastern Daylight Time), Road_Intersection, 60
, , , , , , , , , , , , left, 1, 1.981999999999971, , , , , , , , , , , , navNearRight.jpg, Go away. , left, , , , , navNearRight.jpg, Go away. , left, 1, 2, 18, 7, 7889786, Wed Aug 23 2017 16:10:40 GMT-0400 (Eastern Daylight Time), Road_Intersection, 60
, , , , , , , , , , , , right, 1, 3.3490000000000464, , , , , , , , , , , , navNearRight.jpg, Go right. , right, , , , , navNearRight.jpg, Go right. , right, 1, 3, 19, 15, 7889786, Wed Aug 23 2017 16:10:40 GMT-0400 (Eastern Daylight Time), Road_Intersection, 60
, , , , , , , , , , , , right, 1, 4.216000000000008, , , , , , , , , , , , navFarRight.jpg, Go left. , right, , , , , navFarRight.jpg, Go left. , right, 1, 4, 20, 9, 7889786, Wed Aug 23 2017 16:10:40 GMT-0400 (Eastern Daylight Time), Road_Intersection, 60
, , , , , , , , , , , , left, 1, 2.799000000000035, , , , , , , , , , , , navFarRight.jpg, Go right. , left, , , , , navFarRight.jpg, Go right. , left, 1, 5, 21, 13, 7889786, Wed Aug 23 2017 16:10:40 GMT-0400 (Eastern Daylight Time), Road_Intersection, 60
, , , , , , , , , , , , left, 1, 2.765000000000043, , , , , , , , , , , , navFarLeft.jpg, Go home., left, , , , , navFarLeft.jpg, Go home., left, 1, 6, 22, 0, 7889786, Wed Aug 23 2017 16:10:40 GMT-0400 (Eastern Daylight Time), Road_Intersection, 60
, , , , , , , , , , , , right, 1, 4.664999999999964, , , , , , , , , , , , navNearLeft.jpg, Go right. , right, , , , , navNearLeft.jpg, Go right. , right, 1, 7, 23, 14, 7889786, Wed Aug 23 2017 16:10:40 GMT-0400 (Eastern Daylight Time), Road_Intersection, 60
, , , , , , , , , , , , right, 1, 1, , , , , , , , , , , , navNearRight.jpg, Go home., right, , , , , navNearRight.jpg, Go home., right, 1, 8, 24, 3, 7889786, Wed Aug 23 2017 16:10:40 GMT-0400 (Eastern Daylight Time), Road_Intersection, 60
, , , , , , , , , , , , right, 1, 4.184000000000026, , , , , , , , , , , , navFarRight.jpg, Go home., right, , , , , navFarRight.jpg, Go home., right, 1, 9, 25, 1, 7889786, Wed Aug 23 2017 16:10:40 GMT-0400 (Eastern Daylight Time), Road_Intersection, 60
, , , , , , , , , , , , right, 1, 2.216000000000008, , , , , , , , , , , , navFarLeft.jpg, Go away. , right, , , , , navFarLeft.jpg, Go away. , right, 1, 10, 26, 4, 7889786, Wed Aug 23 2017 16:10:40 GMT-0400 (Eastern Daylight Time), Road_Intersection, 60
, , , , , , , , , , , , left, 1, 1.1820000000000164, , , , , , , , , , , , navNearLeft.jpg, Go home., left, , , , , navNearLeft.jpg, Go home., left, 1, 11, 27, 2, 7889786, Wed Aug 23 2017 16:10:40 GMT-0400 (Eastern Daylight Time), Road_Intersection, 60
, , , , , , , , , , , , left, 1, 1.1329999999999814, , , , , , , , , , , , navNearLeft.jpg, Go left. , left, , , , , navNearLeft.jpg, Go left. , left, 1, 12, 28, 10, 7889786, Wed Aug 23 2017 16:10:40 GMT-0400 (Eastern Daylight Time), Road_Intersection, 60
, , , , , , , , , , , , left, 1, 3.816000000000031, , , , , , , , , , , , navFarLeft.jpg, Go right. , left, , , , , navFarLeft.jpg, Go right. , left, 1, 13, 29, 12, 7889786, Wed Aug 23 2017 16:10:40 GMT-0400 (Eastern Daylight Time), Road_Intersection, 60
, , , , , , , , , , , , right, 1, 3.665999999999997, , , , , , , , , , , , navFarLeft.jpg, Go left. , right, , , , , navFarLeft.jpg, Go left. , right, 1, 14, 30, 8, 7889786, Wed Aug 23 2017 16:10:40 GMT-0400 (Eastern Daylight Time), Road_Intersection, 60
, , , , , , , , , , , , left, 1, 1.41700000000003, , , , , , , , , , , , navNearRight.jpg, Go left. , left, , , , , navNearRight.jpg, Go left. , left, 1, 15, 31, 11, 7889786, Wed Aug 23 2017 16:10:40 GMT-0400 (Eastern Daylight Time), Road_Intersection, 60
, , , , , , , , , , , , left, 1, 4.4950000000000045, , , , , , , , , , , , navFarRight.jpg, Go right. , left, , , , , navFarRight.jpg, Go right. , left, 2, 0, 32, 13, 7889786, Wed Aug 23 2017 16:10:40 GMT-0400 (Eastern Daylight Time), Road_Intersection, 60
, , , , , , , , , , , , left, 1, 1.8500000000000227, , , , , , , , , , , , navNearLeft.jpg, Go left. , left, , , , , navNearLeft.jpg, Go left. , left, 2, 1, 33, 10, 7889786, Wed Aug 23 2017 16:10:40 GMT-0400 (Eastern Daylight Time), Road_Intersection, 60
, , , , , , , , , , , , right, 1, 2.380999999999972, , , , , , , , , , , , navFarLeft.jpg, Go away. , right, , , , , navFarLeft.jpg, Go away. , right, 2, 2, 34, 4, 7889786, Wed Aug 23 2017 16:10:40 GMT-0400 (Eastern Daylight Time), Road_Intersection, 60
, , , , , , , , , , , , right, 1, 4.430999999999983, , , , , , , , , , , , navFarLeft.jpg, Go left. , right, , , , , navFarLeft.jpg, Go left. , right, 2, 3, 35, 8, 7889786, Wed Aug 23 2017 16:10:40 GMT-0400 (Eastern Daylight Time), Road_Intersection, 60
, , , , , , , , , , , , left, 1, 1.0179999999999723, , , , , , , , , , , , navNearLeft.jpg, Go home., left, , , , , navNearLeft.jpg, Go home., left, 2, 4, 36, 2, 7889786, Wed Aug 23 2017 16:10:40 GMT-0400 (Eastern Daylight Time), Road_Intersection, 60
, , , , , , , , , , , , right, 1, 3.465000000000032, , , , , , , , , , , , navFarRight.jpg, Go left. , right, , , , , navFarRight.jpg, Go left. , right, 2, 5, 37, 9, 7889786, Wed Aug 23 2017 16:10:40 GMT-0400 (Eastern Daylight Time), Road_Intersection, 60
, , , , , , , , , , , , right, 1, 0.9489999999999554, , , , , , , , , , , , navNearLeft.jpg, Go right. , right, , , , , navNearLeft.jpg, Go right. , right, 2, 6, 38, 14, 7889786, Wed Aug 23 2017 16:10:40 GMT-0400 (Eastern Daylight Time), Road_Intersection, 60
, , , , , , , , , , , , left, 1, 1.900000000000034, , , , , , , , , , , , navNearRight.jpg, Go away. , left, , , , , navNearRight.jpg, Go away. , left, 2, 7, 39, 7, 7889786, Wed Aug 23 2017 16:10:40 GMT-0400 (Eastern Daylight Time), Road_Intersection, 60
, , , , , , , , , , , , left, 1, 2.348000000000013, , , , , , , , , , , , navFarRight.jpg, Go away. , left, , , , , navFarRight.jpg, Go away. , left, 2, 8, 40, 5, 7889786, Wed Aug 23 2017 16:10:40 GMT-0400 (Eastern Daylight Time), Road_Intersection, 60
, , , , , , , , , , , , right, 1, 0.9669999999999845, , , , , , , , , , , , navNearLeft.jpg, Go away. , right, , , , , navNearLeft.jpg, Go away. , right, 2, 9, 41, 6, 7889786, Wed Aug 23 2017 16:10:40 GMT-0400 (Eastern Daylight Time), Road_Intersection, 60
, , , , , , , , , , , , left, 1, 2.0819999999999936, , , , , , , , , , , , navFarLeft.jpg, Go home., left, , , , , navFarLeft.jpg, Go home., left, 2, 10, 42, 0, 7889786, Wed Aug 23 2017 16:10:40 GMT-0400 (Eastern Daylight Time), Road_Intersection, 60
, , , , , , , , , , , , right, 1, 0.8830000000000382, , , , , , , , , , , , navNearRight.jpg, Go home., right, , , , , navNearRight.jpg, Go home., right, 2, 11, 43, 3, 7889786, Wed Aug 23 2017 16:10:40 GMT-0400 (Eastern Daylight Time), Road_Intersection, 60
, , , , , , , , , , , , right, 1, 1.3330000000000268, , , , , , , , , , , , navNearRight.jpg, Go right. , right, , , , , navNearRight.jpg, Go right. , right, 2, 12, 44, 15, 7889786, Wed Aug 23 2017 16:10:40 GMT-0400 (Eastern Daylight Time), Road_Intersection, 60
, , , , , , , , , , , , right, 1, 1.5, , , , , , , , , , , , navFarRight.jpg, Go home., right, , , , , navFarRight.jpg, Go home., right, 2, 13, 45, 1, 7889786, Wed Aug 23 2017 16:10:40 GMT-0400 (Eastern Daylight Time), Road_Intersection, 60
, , , , , , , , , , , , left, 1, 1.5339999999999918, , , , , , , , , , , , navNearRight.jpg, Go left. , left, , , , , navNearRight.jpg, Go left. , left, 2, 14, 46, 11, 7889786, Wed Aug 23 2017 16:10:40 GMT-0400 (Eastern Daylight Time), Road_Intersection, 60
, , , , , , , , , , , , left, 1, 4.265999999999963, , , , , , , , , , , , navFarLeft.jpg, Go right. , left, , , , , navFarLeft.jpg, Go right. , left, 2, 15, 47, 12, 7889786, Wed Aug 23 2017 16:10:40 GMT-0400 (Eastern Daylight Time), Road_Intersection, 60
, , , , , , , , , , , , right, 1, 0.7649999999999864, , , , , , , , , , , , navNearRight.jpg, Go right. , right, , , , , navNearRight.jpg, Go right. , right, 3, 0, 48, 15, 7889786, Wed Aug 23 2017 16:10:40 GMT-0400 (Eastern Daylight Time), Road_Intersection, 60
, , , , , , , , , , , , right, 1, 1.9150000000000205, , , , , , , , , , , , navFarLeft.jpg, Go away. , right, , , , , navFarLeft.jpg, Go away. , right, 3, 1, 49, 4, 7889786, Wed Aug 23 2017 16:10:40 GMT-0400 (Eastern Daylight Time), Road_Intersection, 60
, , , , , , , , , , , , left, 1, 1.0819999999999936, , , , , , , , , , , , navNearLeft.jpg, Go left. , left, , , , , navNearLeft.jpg, Go left. , left, 3, 2, 50, 10, 7889786, Wed Aug 23 2017 16:10:40 GMT-0400 (Eastern Daylight Time), Road_Intersection, 60
, , , , , , , , , , , , right, 1, 2.1340000000000146, , , , , , , , , , , , navFarRight.jpg, Go left. , right, , , , , navFarRight.jpg, Go left. , right, 3, 3, 51, 9, 7889786, Wed Aug 23 2017 16:10:40 GMT-0400 (Eastern Daylight Time), Road_Intersection, 60
, , , , , , , , , , , , left, 1, 1.115000000000009, , , , , , , , , , , , navNearRight.jpg, Go left. , left, , , , , navNearRight.jpg, Go left. , left, 3, 4, 52, 11, 7889786, Wed Aug 23 2017 16:10:40 GMT-0400 (Eastern Daylight Time), Road_Intersection, 60
, , , , , , , , , , , , left, 1, 1.3829999999999814, , , , , , , , , , , , navFarLeft.jpg, Go home., left, , , , , navFarLeft.jpg, Go home., left, 3, 5, 53, 0, 7889786, Wed Aug 23 2017 16:10:40 GMT-0400 (Eastern Daylight Time), Road_Intersection, 60
, , , , , , , , , , , , right, 1, 0.7829999999999586, , , , , , , , , , , , navNearRight.jpg, Go home., right, , , , , navNearRight.jpg, Go home., right, 3, 6, 54, 3, 7889786, Wed Aug 23 2017 16:10:40 GMT-0400 (Eastern Daylight Time), Road_Intersection, 60
, , , , , , , , , , , , right, 1, 1.6829999999999927, , , , , , , , , , , , navNearLeft.jpg, Go away. , right, , , , , navNearLeft.jpg, Go away. , right, 3, 7, 55, 6, 7889786, Wed Aug 23 2017 16:10:40 GMT-0400 (Eastern Daylight Time), Road_Intersection, 60
, , , , , , , , , , , , left, 1, 1.149000000000001, , , , , , , , , , , , navNearRight.jpg, Go away. , left, , , , , navNearRight.jpg, Go away. , left, 3, 8, 56, 7, 7889786, Wed Aug 23 2017 16:10:40 GMT-0400 (Eastern Daylight Time), Road_Intersection, 60
, , , , , , , , , , , , left, 1, 2.9990000000000236, , , , , , , , , , , , navFarLeft.jpg, Go right. , left, , , , , navFarLeft.jpg, Go right. , left, 3, 9, 57, 12, 7889786, Wed Aug 23 2017 16:10:40 GMT-0400 (Eastern Daylight Time), Road_Intersection, 60
, , , , , , , , , , , , left, 1, 4.065000000000055, , , , , , , , , , , , navFarRight.jpg, Go right. , left, , , , , navFarRight.jpg, Go right. , left, 3, 10, 58, 13, 7889786, Wed Aug 23 2017 16:10:40 GMT-0400 (Eastern Daylight Time), Road_Intersection, 60
, , , , , , , , , , , , right, 1, 2.0990000000000464, , , , , , , , , , , , navFarLeft.jpg, Go left. , right, , , , , navFarLeft.jpg, Go left. , right, 3, 11, 59, 8, 7889786, Wed Aug 23 2017 16:10:40 GMT-0400 (Eastern Daylight Time), Road_Intersection, 60
, , , , , , , , , , , , right, 1, 2.1340000000000146, , , , , , , , , , , , navNearLeft.jpg, Go right. , right, , , , , navNearLeft.jpg, Go right. , right, 3, 12, 60, 14, 7889786, Wed Aug 23 2017 16:10:40 GMT-0400 (Eastern Daylight Time), Road_Intersection, 60
, , , , , , , , , , , , left, 1, 0.9329999999999927, , , , , , , , , , , , navNearLeft.jpg, Go home., left, , , , , navNearLeft.jpg, Go home., left, 3, 13, 61, 2, 7889786, Wed Aug 23 2017 16:10:40 GMT-0400 (Eastern Daylight Time), Road_Intersection, 60
, , , , , , , , , , , , right, 1, 1.8000000000000682, , , , , , , , , , , , navFarRight.jpg, Go home., right, , , , , navFarRight.jpg, Go home., right, 3, 14, 62, 1, 7889786, Wed Aug 23 2017 16:10:40 GMT-0400 (Eastern Daylight Time), Road_Intersection, 60
, , , , , , , , , , , , left, 1, 5.814000000000078, , , , , , , , , , , , navFarRight.jpg, Go away. , left, , , , , navFarRight.jpg, Go away. , left, 3, 15, 63, 5, 7889786, Wed Aug 23 2017 16:10:40 GMT-0400 (Eastern Daylight Time), Road_Intersection, 60
