Continue.keys, Continue.rt, instructions_response.keys, instructions_response.rt, repeat_response.keys, repeat_response.rt, key_resp_5.keys, key_resp_5.rt, key_resp_2.keys, key_resp_2.rt, key_resp_4.keys, key_resp_4.rt, Trials_response.keys, Trials_response.corr, Trials_response.rt, Block_Continue.keys, Block_Continue.rt, Image, instructions_1_loop.thisRepN, instructions_1_loop.thisTrialN, instructions_1_loop.thisN, instructions_1_loop.thisIndex, instructions_2_repeat.thisRepN, instructions_2_repeat.thisTrialN, instructions_2_repeat.thisN, instructions_2_repeat.thisIndex, stim, prompt, answer, trials_2.thisRepN, trials_2.thisTrialN, trials_2.thisN, trials_2.thisIndex, stim, prompt, answer, trials.thisRepN, trials.thisTrialN, trials.thisN, trials.thisIndex, participant, date, expName, frameRate
space, 11.695, space, 4.570999999999998, , , , , , , , , , , , , , Slide15.JPG, 0, 0, 0, 0, , , , , , , , , , , , , , , , , , , 81058337, Sat Aug 19 2017 21:10:48 GMT-0400 (Eastern Daylight Time), Road_Intersection, 60
, , space, 7.1080000000000005, , , , , , , , , , , , , , Slide16.JPG, 0, 1, 1, 1, , , , , , , , , , , , , , , , , , , 81058337, Sat Aug 19 2017 21:10:48 GMT-0400 (Eastern Daylight Time), Road_Intersection, 60
, , space, 3.454000000000004, , , , , , , , , , , , , , Slide17.JPG, 0, 2, 2, 2, , , , , , , , , , , , , , , , , , , 81058337, Sat Aug 19 2017 21:10:48 GMT-0400 (Eastern Daylight Time), Road_Intersection, 60
, , space, 2.1529999999999987, , , , , , , , , , , , , , Slide18.JPG, 0, 3, 3, 3, , , , , , , , , , , , , , , , , , , 81058337, Sat Aug 19 2017 21:10:48 GMT-0400 (Eastern Daylight Time), Road_Intersection, 60
, , space, 6.240000000000002, , , , , , , , , , , , , , Slide19.JPG, 0, 4, 4, 4, , , , , , , , , , , , , , , , , , , 81058337, Sat Aug 19 2017 21:10:48 GMT-0400 (Eastern Daylight Time), Road_Intersection, 60
, , space, 9.043, , , , , , , , , , , , , , Slide20.JPG, 0, 5, 5, 5, , , , , , , , , , , , , , , , , , , 81058337, Sat Aug 19 2017 21:10:48 GMT-0400 (Eastern Daylight Time), Road_Intersection, 60
, , space, 2.8689999999999998, , , , , , , , , , , , , , Slide21.JPG, 0, 6, 6, 6, , , , , , , , , , , , , , , , , , , 81058337, Sat Aug 19 2017 21:10:48 GMT-0400 (Eastern Daylight Time), Road_Intersection, 60
, , space, 3.586999999999996, , , , , , , , , , , , , , Slide22.JPG, 0, 7, 7, 7, , , , , , , , , , , , , , , , , , , 81058337, Sat Aug 19 2017 21:10:48 GMT-0400 (Eastern Daylight Time), Road_Intersection, 60
, , space, 3.405000000000001, , , , , , , , , , , , , , Slide23.JPG, 0, 8, 8, 8, , , , , , , , , , , , , , , , , , , 81058337, Sat Aug 19 2017 21:10:48 GMT-0400 (Eastern Daylight Time), Road_Intersection, 60
, , space, 1.9159999999999968, , , , , , , , , , , , , , Slide24.JPG, 0, 9, 9, 9, , , , , , , , , , , , , , , , , , , 81058337, Sat Aug 19 2017 21:10:48 GMT-0400 (Eastern Daylight Time), Road_Intersection, 60
, , space, 1.3850000000000051, , , , , , , , , , , , , , Slide25.JPG, 0, 10, 10, 10, , , , , , , , , , , , , , , , , , , 81058337, Sat Aug 19 2017 21:10:48 GMT-0400 (Eastern Daylight Time), Road_Intersection, 60
, , space, 1.2010000000000076, , , , , , , , , , , , , , Slide26.JPG, 0, 11, 11, 11, , , , , , , , , , , , , , , , , , , 81058337, Sat Aug 19 2017 21:10:48 GMT-0400 (Eastern Daylight Time), Road_Intersection, 60
, , space, 0.9510000000000076, , , , , , , , , , , , , , Slide27.JPG, 0, 12, 12, 12, , , , , , , , , , , , , , , , , , , 81058337, Sat Aug 19 2017 21:10:48 GMT-0400 (Eastern Daylight Time), Road_Intersection, 60
, , space, 2.7029999999999887, , , , , , , , , , , , , , Slide28.JPG, 0, 13, 13, 13, , , , , , , , , , , , , , , , , , , 81058337, Sat Aug 19 2017 21:10:48 GMT-0400 (Eastern Daylight Time), Road_Intersection, 60
, , , , 0, 2.201999999999998, space, 3.554000000000002, left, 1.3840000000000003, , , , , , , , , , , , , , , , , navFarLeft.jpg, Go right., left, 0, 0, 0, 0, navFarLeft.jpg, Go right., left, , , , , 81058337, Sat Aug 19 2017 21:10:48 GMT-0400 (Eastern Daylight Time), Road_Intersection, 60
, , , , , , , , right, 0.5660000000000025, , , , , , , , , , , , , , , , , navNearLeft.jpg, Go away., right, 0, 1, 1, 1, navNearLeft.jpg, Go away., right, , , , , 81058337, Sat Aug 19 2017 21:10:48 GMT-0400 (Eastern Daylight Time), Road_Intersection, 60
, , , , , , , , right, 0.8190000000000026, , , , , , , , , , , , , , , , , navFarRight.jpg, Go left., right, 0, 2, 2, 2, navFarRight.jpg, Go left., right, , , , , 81058337, Sat Aug 19 2017 21:10:48 GMT-0400 (Eastern Daylight Time), Road_Intersection, 60
, , , , , , , , right, 0.5349999999999966, , , , , , , , , , , , , , , , , navNearRight.jpg, Go home. , right, 0, 3, 3, 3, navNearRight.jpg, Go home. , right, , , , , 81058337, Sat Aug 19 2017 21:10:48 GMT-0400 (Eastern Daylight Time), Road_Intersection, 60
, , , , , , , , left, 0.5679999999999978, , , , , , , , , , , , , , , , , navNearLeft.jpg, Go left., left, 0, 4, 4, 4, navNearLeft.jpg, Go left., left, , , , , 81058337, Sat Aug 19 2017 21:10:48 GMT-0400 (Eastern Daylight Time), Road_Intersection, 60
, , , , , , , , right, 0.6009999999999991, , , , , , , , , , , , , , , , , navNearRight.jpg, Go home., right, 0, 5, 5, 5, navNearRight.jpg, Go home., right, , , , , 81058337, Sat Aug 19 2017 21:10:48 GMT-0400 (Eastern Daylight Time), Road_Intersection, 60
, , , , , , , , right, 0.9500000000000028, , , , , , , , , , , , , , , , , navNearLeft.jpg, Go away., right, 0, 6, 6, 6, navNearLeft.jpg, Go away., right, , , , , 81058337, Sat Aug 19 2017 21:10:48 GMT-0400 (Eastern Daylight Time), Road_Intersection, 60
, , , , , , , , left, 1.2510000000000048, , , , , , , , , , , , , , , , , navFarLeft.jpg, Go right., left, 0, 7, 7, 7, navFarLeft.jpg, Go right., left, , , , , 81058337, Sat Aug 19 2017 21:10:48 GMT-0400 (Eastern Daylight Time), Road_Intersection, 60
, , , , , , , , , , space, 2.319999999999993, left, 1, 0.7350000000000136, , , , , , , , , , , , navFarRight.jpg, Go right. , left, , , , , navFarRight.jpg, Go right. , left, 0, 0, 0, 13, 81058337, Sat Aug 19 2017 21:10:48 GMT-0400 (Eastern Daylight Time), Road_Intersection, 60
, , , , , , , , , , , , left, 1, 0.5180000000000007, , , , , , , , , , , , navNearLeft.jpg, Go home., left, , , , , navNearLeft.jpg, Go home., left, 0, 1, 1, 2, 81058337, Sat Aug 19 2017 21:10:48 GMT-0400 (Eastern Daylight Time), Road_Intersection, 60
, , , , , , , , , , , , right, 1, 0.6340000000000146, , , , , , , , , , , , navNearLeft.jpg, Go away. , right, , , , , navNearLeft.jpg, Go away. , right, 0, 2, 2, 6, 81058337, Sat Aug 19 2017 21:10:48 GMT-0400 (Eastern Daylight Time), Road_Intersection, 60
, , , , , , , , , , , , left, 1, 0.6680000000000064, , , , , , , , , , , , navNearRight.jpg, Go away. , left, , , , , navNearRight.jpg, Go away. , left, 0, 3, 3, 7, 81058337, Sat Aug 19 2017 21:10:48 GMT-0400 (Eastern Daylight Time), Road_Intersection, 60
, , , , , , , , , , , , right, 1, 0.5, , , , , , , , , , , , navNearLeft.jpg, Go right. , right, , , , , navNearLeft.jpg, Go right. , right, 0, 4, 4, 14, 81058337, Sat Aug 19 2017 21:10:48 GMT-0400 (Eastern Daylight Time), Road_Intersection, 60
, , , , , , , , , , , , left, 1, 0.5520000000000209, , , , , , , , , , , , navNearRight.jpg, Go left. , left, , , , , navNearRight.jpg, Go left. , left, 0, 5, 5, 11, 81058337, Sat Aug 19 2017 21:10:48 GMT-0400 (Eastern Daylight Time), Road_Intersection, 60
, , , , , , , , , , , , right, 1, 0.5989999999999895, , , , , , , , , , , , navFarRight.jpg, Go left. , right, , , , , navFarRight.jpg, Go left. , right, 0, 6, 6, 9, 81058337, Sat Aug 19 2017 21:10:48 GMT-0400 (Eastern Daylight Time), Road_Intersection, 60
, , , , , , , , , , , , left, 1, 0.5500000000000114, , , , , , , , , , , , navNearLeft.jpg, Go left. , left, , , , , navNearLeft.jpg, Go left. , left, 0, 7, 7, 10, 81058337, Sat Aug 19 2017 21:10:48 GMT-0400 (Eastern Daylight Time), Road_Intersection, 60
, , , , , , , , , , , , right, 1, 0.5, , , , , , , , , , , , navFarRight.jpg, Go home., right, , , , , navFarRight.jpg, Go home., right, 0, 8, 8, 1, 81058337, Sat Aug 19 2017 21:10:48 GMT-0400 (Eastern Daylight Time), Road_Intersection, 60
, , , , , , , , , , , , right, 1, 0.4000000000000057, , , , , , , , , , , , navNearRight.jpg, Go right. , right, , , , , navNearRight.jpg, Go right. , right, 0, 9, 9, 15, 81058337, Sat Aug 19 2017 21:10:48 GMT-0400 (Eastern Daylight Time), Road_Intersection, 60
, , , , , , , , , , , , right, 1, 0.5169999999999959, , , , , , , , , , , , navNearRight.jpg, Go home., right, , , , , navNearRight.jpg, Go home., right, 0, 10, 10, 3, 81058337, Sat Aug 19 2017 21:10:48 GMT-0400 (Eastern Daylight Time), Road_Intersection, 60
, , , , , , , , , , , , left, 1, 0.6840000000000259, , , , , , , , , , , , navFarRight.jpg, Go away. , left, , , , , navFarRight.jpg, Go away. , left, 0, 11, 11, 5, 81058337, Sat Aug 19 2017 21:10:48 GMT-0400 (Eastern Daylight Time), Road_Intersection, 60
, , , , , , , , , , , , right, 1, 0.664999999999992, , , , , , , , , , , , navFarLeft.jpg, Go away. , right, , , , , navFarLeft.jpg, Go away. , right, 0, 12, 12, 4, 81058337, Sat Aug 19 2017 21:10:48 GMT-0400 (Eastern Daylight Time), Road_Intersection, 60
, , , , , , , , , , , , left, 0, 0.532999999999987, , , , , , , , , , , , navFarLeft.jpg, Go left. , right, , , , , navFarLeft.jpg, Go left. , right, 0, 13, 13, 8, 81058337, Sat Aug 19 2017 21:10:48 GMT-0400 (Eastern Daylight Time), Road_Intersection, 60
, , , , , , , , , , , , left, 1, 0.6009999999999991, , , , , , , , , , , , navFarLeft.jpg, Go home., left, , , , , navFarLeft.jpg, Go home., left, 0, 14, 14, 0, 81058337, Sat Aug 19 2017 21:10:48 GMT-0400 (Eastern Daylight Time), Road_Intersection, 60
, , , , , , , , , , , , left, 1, 0.6340000000000146, , , , , , , , , , , , navFarLeft.jpg, Go right. , left, , , , , navFarLeft.jpg, Go right. , left, 0, 15, 15, 12, 81058337, Sat Aug 19 2017 21:10:48 GMT-0400 (Eastern Daylight Time), Road_Intersection, 60
, , , , , , , , , , , , left, 1, 1.4170000000000016, , , , , , , , , , , , navFarRight.jpg, Go right. , left, , , , , navFarRight.jpg, Go right. , left, 1, 0, 16, 13, 81058337, Sat Aug 19 2017 21:10:48 GMT-0400 (Eastern Daylight Time), Road_Intersection, 60
, , , , , , , , , , , , right, 1, 0.5679999999999836, , , , , , , , , , , , navFarRight.jpg, Go home., right, , , , , navFarRight.jpg, Go home., right, 1, 1, 17, 1, 81058337, Sat Aug 19 2017 21:10:48 GMT-0400 (Eastern Daylight Time), Road_Intersection, 60
, , , , , , , , , , , , left, 1, 0.5340000000000202, , , , , , , , , , , , navNearLeft.jpg, Go home., left, , , , , navNearLeft.jpg, Go home., left, 1, 2, 18, 2, 81058337, Sat Aug 19 2017 21:10:48 GMT-0400 (Eastern Daylight Time), Road_Intersection, 60
, , , , , , , , , , , , right, 1, 0.6500000000000057, , , , , , , , , , , , navNearLeft.jpg, Go away. , right, , , , , navNearLeft.jpg, Go away. , right, 1, 3, 19, 6, 81058337, Sat Aug 19 2017 21:10:48 GMT-0400 (Eastern Daylight Time), Road_Intersection, 60
, , , , , , , , , , , , right, 1, 0.5169999999999959, , , , , , , , , , , , navNearRight.jpg, Go home., right, , , , , navNearRight.jpg, Go home., right, 1, 4, 20, 3, 81058337, Sat Aug 19 2017 21:10:48 GMT-0400 (Eastern Daylight Time), Road_Intersection, 60
, , , , , , , , , , , , left, 1, 0.5019999999999811, , , , , , , , , , , , navNearRight.jpg, Go left. , left, , , , , navNearRight.jpg, Go left. , left, 1, 5, 21, 11, 81058337, Sat Aug 19 2017 21:10:48 GMT-0400 (Eastern Daylight Time), Road_Intersection, 60
, , , , , , , , , , , , left, 1, 0.4660000000000082, , , , , , , , , , , , navNearLeft.jpg, Go left. , left, , , , , navNearLeft.jpg, Go left. , left, 1, 6, 22, 10, 81058337, Sat Aug 19 2017 21:10:48 GMT-0400 (Eastern Daylight Time), Road_Intersection, 60
, , , , , , , , , , , , left, 1, 0.6350000000000193, , , , , , , , , , , , navFarLeft.jpg, Go right. , left, , , , , navFarLeft.jpg, Go right. , left, 1, 7, 23, 12, 81058337, Sat Aug 19 2017 21:10:48 GMT-0400 (Eastern Daylight Time), Road_Intersection, 60
, , , , , , , , , , , , right, 1, 0.6330000000000098, , , , , , , , , , , , navFarLeft.jpg, Go away. , right, , , , , navFarLeft.jpg, Go away. , right, 1, 8, 24, 4, 81058337, Sat Aug 19 2017 21:10:48 GMT-0400 (Eastern Daylight Time), Road_Intersection, 60
, , , , , , , , , , , , right, 1, 0.4679999999999893, , , , , , , , , , , , navNearRight.jpg, Go right. , right, , , , , navNearRight.jpg, Go right. , right, 1, 9, 25, 15, 81058337, Sat Aug 19 2017 21:10:48 GMT-0400 (Eastern Daylight Time), Road_Intersection, 60
, , , , , , , , , , , , left, 1, 0.6850000000000023, , , , , , , , , , , , navFarRight.jpg, Go away. , left, , , , , navFarRight.jpg, Go away. , left, 1, 10, 26, 5, 81058337, Sat Aug 19 2017 21:10:48 GMT-0400 (Eastern Daylight Time), Road_Intersection, 60
, , , , , , , , , , , , left, 0, 0.6170000000000186, , , , , , , , , , , , navFarLeft.jpg, Go left. , right, , , , , navFarLeft.jpg, Go left. , right, 1, 11, 27, 8, 81058337, Sat Aug 19 2017 21:10:48 GMT-0400 (Eastern Daylight Time), Road_Intersection, 60
, , , , , , , , , , , , left, 1, 0.5169999999999959, , , , , , , , , , , , navFarLeft.jpg, Go home., left, , , , , navFarLeft.jpg, Go home., left, 1, 12, 28, 0, 81058337, Sat Aug 19 2017 21:10:48 GMT-0400 (Eastern Daylight Time), Road_Intersection, 60
, , , , , , , , , , , , right, 1, 0.7849999999999966, , , , , , , , , , , , navFarRight.jpg, Go left. , right, , , , , navFarRight.jpg, Go left. , right, 1, 13, 29, 9, 81058337, Sat Aug 19 2017 21:10:48 GMT-0400 (Eastern Daylight Time), Road_Intersection, 60
, , , , , , , , , , , , right, 1, 0.5, , , , , , , , , , , , navNearLeft.jpg, Go right. , right, , , , , navNearLeft.jpg, Go right. , right, 1, 14, 30, 14, 81058337, Sat Aug 19 2017 21:10:48 GMT-0400 (Eastern Daylight Time), Road_Intersection, 60
, , , , , , , , , , , , left, 1, 0.650999999999982, , , , , , , , , , , , navNearRight.jpg, Go away. , left, , , , , navNearRight.jpg, Go away. , left, 1, 15, 31, 7, 81058337, Sat Aug 19 2017 21:10:48 GMT-0400 (Eastern Daylight Time), Road_Intersection, 60
, , , , , , , , , , , , left, 1, 0.4509999999999934, , , , , , , , , , , , navFarRight.jpg, Go away. , left, , , , , navFarRight.jpg, Go away. , left, 2, 0, 32, 5, 81058337, Sat Aug 19 2017 21:10:48 GMT-0400 (Eastern Daylight Time), Road_Intersection, 60
, , , , , , , , , , , , left, 1, 0.6680000000000064, , , , , , , , , , , , navNearRight.jpg, Go away. , left, , , , , navNearRight.jpg, Go away. , left, 2, 1, 33, 7, 81058337, Sat Aug 19 2017 21:10:48 GMT-0400 (Eastern Daylight Time), Road_Intersection, 60
, , , , , , , , , , , , left, 1, 1.167999999999978, , , , , , , , , , , , navFarLeft.jpg, Go right. , left, , , , , navFarLeft.jpg, Go right. , left, 2, 2, 34, 12, 81058337, Sat Aug 19 2017 21:10:48 GMT-0400 (Eastern Daylight Time), Road_Intersection, 60
, , , , , , , , , , , , right, 1, 0.5840000000000032, , , , , , , , , , , , navFarLeft.jpg, Go left. , right, , , , , navFarLeft.jpg, Go left. , right, 2, 3, 35, 8, 81058337, Sat Aug 19 2017 21:10:48 GMT-0400 (Eastern Daylight Time), Road_Intersection, 60
, , , , , , , , , , , , right, 1, 0.45000000000001705, , , , , , , , , , , , navFarLeft.jpg, Go away. , right, , , , , navFarLeft.jpg, Go away. , right, 2, 4, 36, 4, 81058337, Sat Aug 19 2017 21:10:48 GMT-0400 (Eastern Daylight Time), Road_Intersection, 60
, , , , , , , , , , , , right, 1, 0.3830000000000098, , , , , , , , , , , , navNearLeft.jpg, Go right. , right, , , , , navNearLeft.jpg, Go right. , right, 2, 5, 37, 14, 81058337, Sat Aug 19 2017 21:10:48 GMT-0400 (Eastern Daylight Time), Road_Intersection, 60
, , , , , , , , , , , , right, 1, 0.5349999999999966, , , , , , , , , , , , navNearRight.jpg, Go right. , right, , , , , navNearRight.jpg, Go right. , right, 2, 6, 38, 15, 81058337, Sat Aug 19 2017 21:10:48 GMT-0400 (Eastern Daylight Time), Road_Intersection, 60
, , , , , , , , , , , , left, 1, 0.6669999999999732, , , , , , , , , , , , navFarLeft.jpg, Go home., left, , , , , navFarLeft.jpg, Go home., left, 2, 7, 39, 0, 81058337, Sat Aug 19 2017 21:10:48 GMT-0400 (Eastern Daylight Time), Road_Intersection, 60
, , , , , , , , , , , , right, 1, 0.6500000000000057, , , , , , , , , , , , navFarRight.jpg, Go left. , right, , , , , navFarRight.jpg, Go left. , right, 2, 8, 40, 9, 81058337, Sat Aug 19 2017 21:10:48 GMT-0400 (Eastern Daylight Time), Road_Intersection, 60
, , , , , , , , , , , , right, 1, 0.5670000000000073, , , , , , , , , , , , navFarRight.jpg, Go home., right, , , , , navFarRight.jpg, Go home., right, 2, 9, 41, 1, 81058337, Sat Aug 19 2017 21:10:48 GMT-0400 (Eastern Daylight Time), Road_Intersection, 60
, , , , , , , , , , , , right, 1, 0.6670000000000016, , , , , , , , , , , , navNearLeft.jpg, Go away. , right, , , , , navNearLeft.jpg, Go away. , right, 2, 10, 42, 6, 81058337, Sat Aug 19 2017 21:10:48 GMT-0400 (Eastern Daylight Time), Road_Intersection, 60
, , , , , , , , , , , , left, 1, 0.6339999999999861, , , , , , , , , , , , navNearRight.jpg, Go left. , left, , , , , navNearRight.jpg, Go left. , left, 2, 11, 43, 11, 81058337, Sat Aug 19 2017 21:10:48 GMT-0400 (Eastern Daylight Time), Road_Intersection, 60
, , , , , , , , , , , , left, 1, 0.6680000000000064, , , , , , , , , , , , navNearLeft.jpg, Go home., left, , , , , navNearLeft.jpg, Go home., left, 2, 12, 44, 2, 81058337, Sat Aug 19 2017 21:10:48 GMT-0400 (Eastern Daylight Time), Road_Intersection, 60
, , , , , , , , , , , , right, 1, 0.5989999999999895, , , , , , , , , , , , navNearRight.jpg, Go home., right, , , , , navNearRight.jpg, Go home., right, 2, 13, 45, 3, 81058337, Sat Aug 19 2017 21:10:48 GMT-0400 (Eastern Daylight Time), Road_Intersection, 60
, , , , , , , , , , , , left, 1, 0.6999999999999886, , , , , , , , , , , , navFarRight.jpg, Go right. , left, , , , , navFarRight.jpg, Go right. , left, 2, 14, 46, 13, 81058337, Sat Aug 19 2017 21:10:48 GMT-0400 (Eastern Daylight Time), Road_Intersection, 60
, , , , , , , , , , , , left, 1, 0.6859999999999786, , , , , , , , , , , , navNearLeft.jpg, Go left. , left, , , , , navNearLeft.jpg, Go left. , left, 2, 15, 47, 10, 81058337, Sat Aug 19 2017 21:10:48 GMT-0400 (Eastern Daylight Time), Road_Intersection, 60
, , , , , , , , , , , , left, 1, 0.5160000000000196, , , , , , , , , , , , navNearLeft.jpg, Go home., left, , , , , navNearLeft.jpg, Go home., left, 3, 0, 48, 2, 81058337, Sat Aug 19 2017 21:10:48 GMT-0400 (Eastern Daylight Time), Road_Intersection, 60
, , , , , , , , , , , , right, 1, 0.5500000000000114, , , , , , , , , , , , navFarRight.jpg, Go home., right, , , , , navFarRight.jpg, Go home., right, 3, 1, 49, 1, 81058337, Sat Aug 19 2017 21:10:48 GMT-0400 (Eastern Daylight Time), Road_Intersection, 60
, , , , , , , , , , , , right, 1, 0.6840000000000259, , , , , , , , , , , , navFarRight.jpg, Go left. , right, , , , , navFarRight.jpg, Go left. , right, 3, 2, 50, 9, 81058337, Sat Aug 19 2017 21:10:48 GMT-0400 (Eastern Daylight Time), Road_Intersection, 60
, , , , , , , , , , , , left, 1, 0.5849999999999795, , , , , , , , , , , , navFarRight.jpg, Go right. , left, , , , , navFarRight.jpg, Go right. , left, 3, 3, 51, 13, 81058337, Sat Aug 19 2017 21:10:48 GMT-0400 (Eastern Daylight Time), Road_Intersection, 60
, , , , , , , , , , , , right, 1, 0.6849999999999454, , , , , , , , , , , , navNearLeft.jpg, Go away. , right, , , , , navNearLeft.jpg, Go away. , right, 3, 4, 52, 6, 81058337, Sat Aug 19 2017 21:10:48 GMT-0400 (Eastern Daylight Time), Road_Intersection, 60
, , , , , , , , , , , , left, 1, 0.6510000000000105, , , , , , , , , , , , navNearRight.jpg, Go away. , left, , , , , navNearRight.jpg, Go away. , left, 3, 5, 53, 7, 81058337, Sat Aug 19 2017 21:10:48 GMT-0400 (Eastern Daylight Time), Road_Intersection, 60
, , , , , , , , , , , , left, 0, 0.6679999999999495, , , , , , , , , , , , navFarLeft.jpg, Go left. , right, , , , , navFarLeft.jpg, Go left. , right, 3, 6, 54, 8, 81058337, Sat Aug 19 2017 21:10:48 GMT-0400 (Eastern Daylight Time), Road_Intersection, 60
, , , , , , , , , , , , left, 1, 0.6850000000000023, , , , , , , , , , , , navFarLeft.jpg, Go home., left, , , , , navFarLeft.jpg, Go home., left, 3, 7, 55, 0, 81058337, Sat Aug 19 2017 21:10:48 GMT-0400 (Eastern Daylight Time), Road_Intersection, 60
, , , , , , , , , , , , right, 1, 0.450999999999965, , , , , , , , , , , , navNearRight.jpg, Go right. , right, , , , , navNearRight.jpg, Go right. , right, 3, 8, 56, 15, 81058337, Sat Aug 19 2017 21:10:48 GMT-0400 (Eastern Daylight Time), Road_Intersection, 60
, , , , , , , , , , , , left, 1, 0.8340000000000032, , , , , , , , , , , , navFarRight.jpg, Go away. , left, , , , , navFarRight.jpg, Go away. , left, 3, 9, 57, 5, 81058337, Sat Aug 19 2017 21:10:48 GMT-0400 (Eastern Daylight Time), Road_Intersection, 60
, , , , , , , , , , , , left, 1, 0.5999999999999659, , , , , , , , , , , , navNearLeft.jpg, Go left. , left, , , , , navNearLeft.jpg, Go left. , left, 3, 10, 58, 10, 81058337, Sat Aug 19 2017 21:10:48 GMT-0400 (Eastern Daylight Time), Road_Intersection, 60
, , , , , , , , , , , , right, 1, 0.5999999999999659, , , , , , , , , , , , navNearRight.jpg, Go home., right, , , , , navNearRight.jpg, Go home., right, 3, 11, 59, 3, 81058337, Sat Aug 19 2017 21:10:48 GMT-0400 (Eastern Daylight Time), Road_Intersection, 60
, , , , , , , , , , , , right, 1, 0.9669999999999845, , , , , , , , , , , , navNearLeft.jpg, Go right. , right, , , , , navNearLeft.jpg, Go right. , right, 3, 12, 60, 14, 81058337, Sat Aug 19 2017 21:10:48 GMT-0400 (Eastern Daylight Time), Road_Intersection, 60
, , , , , , , , , , , , right, 1, 0.6499999999999773, , , , , , , , , , , , navFarLeft.jpg, Go away. , right, , , , , navFarLeft.jpg, Go away. , right, 3, 13, 61, 4, 81058337, Sat Aug 19 2017 21:10:48 GMT-0400 (Eastern Daylight Time), Road_Intersection, 60
, , , , , , , , , , , , left, 1, 0.5520000000000209, , , , , , , , , , , , navNearRight.jpg, Go left. , left, , , , , navNearRight.jpg, Go left. , left, 3, 14, 62, 11, 81058337, Sat Aug 19 2017 21:10:48 GMT-0400 (Eastern Daylight Time), Road_Intersection, 60
, , , , , , , , , , , , left, 1, 0.7010000000000218, , , , , , , , , , , , navFarLeft.jpg, Go right. , left, , , , , navFarLeft.jpg, Go right. , left, 3, 15, 63, 12, 81058337, Sat Aug 19 2017 21:10:48 GMT-0400 (Eastern Daylight Time), Road_Intersection, 60
