Continue.keys, Continue.rt, instructions_response.keys, instructions_response.rt, repeat_response.keys, repeat_response.rt, key_resp_5.keys, key_resp_5.rt, key_resp_2.keys, key_resp_2.rt, key_resp_4.keys, key_resp_4.rt, Trials_response.keys, Trials_response.corr, Trials_response.rt, Block_Continue.keys, Block_Continue.rt, Image, instructions_1_loop.thisRepN, instructions_1_loop.thisTrialN, instructions_1_loop.thisN, instructions_1_loop.thisIndex, instructions_2_repeat.thisRepN, instructions_2_repeat.thisTrialN, instructions_2_repeat.thisN, instructions_2_repeat.thisIndex, stim, prompt, answer, trials_2.thisRepN, trials_2.thisTrialN, trials_2.thisN, trials_2.thisIndex, stim, prompt, answer, trials.thisRepN, trials.thisTrialN, trials.thisN, trials.thisIndex, participant, date, expName, frameRate
space, 1.8989999999999974, space, 5.138000000000002, , , , , , , , , , , , , , Slide15.JPG, 0, 0, 0, 0, , , , , , , , , , , , , , , , , , , 81620443, Wed Nov 15 2017 15:05:19 GMT-0500 (Eastern Standard Time), Road_Intersection, 60
, , space, 9.21, , , , , , , , , , , , , , Slide16.JPG, 0, 1, 1, 1, , , , , , , , , , , , , , , , , , , 81620443, Wed Nov 15 2017 15:05:19 GMT-0500 (Eastern Standard Time), Road_Intersection, 60
, , space, 6.996000000000002, , , , , , , , , , , , , , Slide17.JPG, 0, 2, 2, 2, , , , , , , , , , , , , , , , , , , 81620443, Wed Nov 15 2017 15:05:19 GMT-0500 (Eastern Standard Time), Road_Intersection, 60
, , space, 6.794999999999995, , , , , , , , , , , , , , Slide18.JPG, 0, 3, 3, 3, , , , , , , , , , , , , , , , , , , 81620443, Wed Nov 15 2017 15:05:19 GMT-0500 (Eastern Standard Time), Road_Intersection, 60
, , space, 24.99799999999999, , , , , , , , , , , , , , Slide19.JPG, 0, 4, 4, 4, , , , , , , , , , , , , , , , , , , 81620443, Wed Nov 15 2017 15:05:19 GMT-0500 (Eastern Standard Time), Road_Intersection, 60
, , space, 17.820000000000007, , , , , , , , , , , , , , Slide20.JPG, 0, 5, 5, 5, , , , , , , , , , , , , , , , , , , 81620443, Wed Nov 15 2017 15:05:19 GMT-0500 (Eastern Standard Time), Road_Intersection, 60
, , space, 6.961000000000013, , , , , , , , , , , , , , Slide21.JPG, 0, 6, 6, 6, , , , , , , , , , , , , , , , , , , 81620443, Wed Nov 15 2017 15:05:19 GMT-0500 (Eastern Standard Time), Road_Intersection, 60
, , space, 12.64, , , , , , , , , , , , , , Slide22.JPG, 0, 7, 7, 7, , , , , , , , , , , , , , , , , , , 81620443, Wed Nov 15 2017 15:05:19 GMT-0500 (Eastern Standard Time), Road_Intersection, 60
, , space, 3.4480000000000075, , , , , , , , , , , , , , Slide23.JPG, 0, 8, 8, 8, , , , , , , , , , , , , , , , , , , 81620443, Wed Nov 15 2017 15:05:19 GMT-0500 (Eastern Standard Time), Road_Intersection, 60
, , space, 2.614999999999995, , , , , , , , , , , , , , Slide24.JPG, 0, 9, 9, 9, , , , , , , , , , , , , , , , , , , 81620443, Wed Nov 15 2017 15:05:19 GMT-0500 (Eastern Standard Time), Road_Intersection, 60
, , space, 3.064000000000007, , , , , , , , , , , , , , Slide25.JPG, 0, 10, 10, 10, , , , , , , , , , , , , , , , , , , 81620443, Wed Nov 15 2017 15:05:19 GMT-0500 (Eastern Standard Time), Road_Intersection, 60
, , space, 1.8329999999999984, , , , , , , , , , , , , , Slide26.JPG, 0, 11, 11, 11, , , , , , , , , , , , , , , , , , , 81620443, Wed Nov 15 2017 15:05:19 GMT-0500 (Eastern Standard Time), Road_Intersection, 60
, , space, 0.8819999999999766, , , , , , , , , , , , , , Slide27.JPG, 0, 12, 12, 12, , , , , , , , , , , , , , , , , , , 81620443, Wed Nov 15 2017 15:05:19 GMT-0500 (Eastern Standard Time), Road_Intersection, 60
, , space, 3.3799999999999955, , , , , , , , , , , , , , Slide28.JPG, 0, 13, 13, 13, , , , , , , , , , , , , , , , , , , 81620443, Wed Nov 15 2017 15:05:19 GMT-0500 (Eastern Standard Time), Road_Intersection, 60
, , , , 0, 5.128999999999991, space, 1.431999999999988, left, 5.429000000000002, , , , , , , , , , , , , , , , , navFarLeft.jpg, Go right., left, 0, 0, 0, 0, navFarLeft.jpg, Go right., left, , , , , 81620443, Wed Nov 15 2017 15:05:19 GMT-0500 (Eastern Standard Time), Road_Intersection, 60
, , , , , , , , right, 2.195999999999998, , , , , , , , , , , , , , , , , navNearLeft.jpg, Go away., right, 0, 1, 1, 1, navNearLeft.jpg, Go away., right, , , , , 81620443, Wed Nov 15 2017 15:05:19 GMT-0500 (Eastern Standard Time), Road_Intersection, 60
, , , , , , , , right, 7.1270000000000095, , , , , , , , , , , , , , , , , navFarRight.jpg, Go left., right, 0, 2, 2, 2, navFarRight.jpg, Go left., right, , , , , 81620443, Wed Nov 15 2017 15:05:19 GMT-0500 (Eastern Standard Time), Road_Intersection, 60
, , , , , , , , right, 1.115000000000009, , , , , , , , , , , , , , , , , navNearRight.jpg, Go home. , right, 0, 3, 3, 3, navNearRight.jpg, Go home. , right, , , , , 81620443, Wed Nov 15 2017 15:05:19 GMT-0500 (Eastern Standard Time), Road_Intersection, 60
, , , , , , , , left, 1.6310000000000002, , , , , , , , , , , , , , , , , navNearLeft.jpg, Go left., left, 0, 4, 4, 4, navNearLeft.jpg, Go left., left, , , , , 81620443, Wed Nov 15 2017 15:05:19 GMT-0500 (Eastern Standard Time), Road_Intersection, 60
, , , , , , , , right, 0.8660000000000139, , , , , , , , , , , , , , , , , navNearRight.jpg, Go home., right, 0, 5, 5, 5, navNearRight.jpg, Go home., right, , , , , 81620443, Wed Nov 15 2017 15:05:19 GMT-0500 (Eastern Standard Time), Road_Intersection, 60
, , , , , , , , right, 1.3810000000000002, , , , , , , , , , , , , , , , , navNearLeft.jpg, Go away., right, 0, 6, 6, 6, navNearLeft.jpg, Go away., right, , , , , 81620443, Wed Nov 15 2017 15:05:19 GMT-0500 (Eastern Standard Time), Road_Intersection, 60
, , , , , , , , left, 5.0779999999999745, , , , , , , , , , , , , , , , , navFarLeft.jpg, Go right., left, 0, 7, 7, 7, navFarLeft.jpg, Go right., left, , , , , 81620443, Wed Nov 15 2017 15:05:19 GMT-0500 (Eastern Standard Time), Road_Intersection, 60
, , , , , , , , , , space, 6.078000000000003, left, 1, 2.0989999999999895, , , , , , , , , , , , navFarRight.jpg, Go away. , left, , , , , navFarRight.jpg, Go away. , left, 0, 0, 0, 5, 81620443, Wed Nov 15 2017 15:05:19 GMT-0500 (Eastern Standard Time), Road_Intersection, 60
, , , , , , , , , , , , left, 1, 2.9639999999999986, , , , , , , , , , , , navFarLeft.jpg, Go right. , left, , , , , navFarLeft.jpg, Go right. , left, 0, 1, 1, 12, 81620443, Wed Nov 15 2017 15:05:19 GMT-0500 (Eastern Standard Time), Road_Intersection, 60
, , , , , , , , , , , , right, 1, 1.582000000000022, , , , , , , , , , , , navFarRight.jpg, Go home., right, , , , , navFarRight.jpg, Go home., right, 0, 2, 2, 1, 81620443, Wed Nov 15 2017 15:05:19 GMT-0500 (Eastern Standard Time), Road_Intersection, 60
, , , , , , , , , , , , left, 1, 1.1980000000000075, , , , , , , , , , , , navNearLeft.jpg, Go left. , left, , , , , navNearLeft.jpg, Go left. , left, 0, 3, 3, 10, 81620443, Wed Nov 15 2017 15:05:19 GMT-0500 (Eastern Standard Time), Road_Intersection, 60
, , , , , , , , , , , , right, 1, 2.3310000000000173, , , , , , , , , , , , navFarLeft.jpg, Go left. , right, , , , , navFarLeft.jpg, Go left. , right, 0, 4, 4, 8, 81620443, Wed Nov 15 2017 15:05:19 GMT-0500 (Eastern Standard Time), Road_Intersection, 60
, , , , , , , , , , , , right, 1, 1.0500000000000114, , , , , , , , , , , , navNearRight.jpg, Go right. , right, , , , , navNearRight.jpg, Go right. , right, 0, 5, 5, 15, 81620443, Wed Nov 15 2017 15:05:19 GMT-0500 (Eastern Standard Time), Road_Intersection, 60
, , , , , , , , , , , , left, 1, 0.799999999999983, , , , , , , , , , , , navNearLeft.jpg, Go home., left, , , , , navNearLeft.jpg, Go home., left, 0, 6, 6, 2, 81620443, Wed Nov 15 2017 15:05:19 GMT-0500 (Eastern Standard Time), Road_Intersection, 60
, , , , , , , , , , , , right, 1, 0.7330000000000041, , , , , , , , , , , , navNearRight.jpg, Go home., right, , , , , navNearRight.jpg, Go home., right, 0, 7, 7, 3, 81620443, Wed Nov 15 2017 15:05:19 GMT-0500 (Eastern Standard Time), Road_Intersection, 60
, , , , , , , , , , , , right, 1, 0.9159999999999968, , , , , , , , , , , , navNearLeft.jpg, Go away. , right, , , , , navNearLeft.jpg, Go away. , right, 0, 8, 8, 6, 81620443, Wed Nov 15 2017 15:05:19 GMT-0500 (Eastern Standard Time), Road_Intersection, 60
, , , , , , , , , , , , left, 1, 3.697999999999979, , , , , , , , , , , , navFarLeft.jpg, Go home., left, , , , , navFarLeft.jpg, Go home., left, 0, 9, 9, 0, 81620443, Wed Nov 15 2017 15:05:19 GMT-0500 (Eastern Standard Time), Road_Intersection, 60
, , , , , , , , , , , , right, 1, 1.9820000000000277, , , , , , , , , , , , navFarLeft.jpg, Go away. , right, , , , , navFarLeft.jpg, Go away. , right, 0, 10, 10, 4, 81620443, Wed Nov 15 2017 15:05:19 GMT-0500 (Eastern Standard Time), Road_Intersection, 60
, , , , , , , , , , , , right, 1, 0.7830000000000155, , , , , , , , , , , , navNearLeft.jpg, Go right. , right, , , , , navNearLeft.jpg, Go right. , right, 0, 11, 11, 14, 81620443, Wed Nov 15 2017 15:05:19 GMT-0500 (Eastern Standard Time), Road_Intersection, 60
, , , , , , , , , , , , left, 1, 4.3139999999999645, , , , , , , , , , , , navFarRight.jpg, Go right. , left, , , , , navFarRight.jpg, Go right. , left, 0, 12, 12, 13, 81620443, Wed Nov 15 2017 15:05:19 GMT-0500 (Eastern Standard Time), Road_Intersection, 60
, , , , , , , , , , , , left, 1, 0.9820000000000277, , , , , , , , , , , , navNearRight.jpg, Go left. , left, , , , , navNearRight.jpg, Go left. , left, 0, 13, 13, 11, 81620443, Wed Nov 15 2017 15:05:19 GMT-0500 (Eastern Standard Time), Road_Intersection, 60
, , , , , , , , , , , , left, 1, 0.799000000000035, , , , , , , , , , , , navNearRight.jpg, Go away. , left, , , , , navNearRight.jpg, Go away. , left, 0, 14, 14, 7, 81620443, Wed Nov 15 2017 15:05:19 GMT-0500 (Eastern Standard Time), Road_Intersection, 60
, , , , , , , , , , , , right, 1, 3.7970000000000255, , , , , , , , , , , , navFarRight.jpg, Go left. , right, , , , , navFarRight.jpg, Go left. , right, 0, 15, 15, 9, 81620443, Wed Nov 15 2017 15:05:19 GMT-0500 (Eastern Standard Time), Road_Intersection, 60
, , , , , , , , , , , , left, 1, 3.630999999999972, , , , , , , , , , , , navNearRight.jpg, Go left. , left, , , , , navNearRight.jpg, Go left. , left, 1, 0, 16, 11, 81620443, Wed Nov 15 2017 15:05:19 GMT-0500 (Eastern Standard Time), Road_Intersection, 60
, , , , , , , , , , , , right, 1, 1.1819999999999595, , , , , , , , , , , , navNearLeft.jpg, Go right. , right, , , , , navNearLeft.jpg, Go right. , right, 1, 1, 17, 14, 81620443, Wed Nov 15 2017 15:05:19 GMT-0500 (Eastern Standard Time), Road_Intersection, 60
, , , , , , , , , , , , left, 0, 1.5480000000000018, , , , , , , , , , , , navFarLeft.jpg, Go left. , right, , , , , navFarLeft.jpg, Go left. , right, 1, 2, 18, 8, 81620443, Wed Nov 15 2017 15:05:19 GMT-0500 (Eastern Standard Time), Road_Intersection, 60
, , , , , , , , , , , , left, 1, 12.822999999999979, , , , , , , , , , , , navFarRight.jpg, Go right. , left, , , , , navFarRight.jpg, Go right. , left, 1, 3, 19, 13, 81620443, Wed Nov 15 2017 15:05:19 GMT-0500 (Eastern Standard Time), Road_Intersection, 60
, , , , , , , , , , , , left, 1, 1.0330000000000155, , , , , , , , , , , , navNearLeft.jpg, Go left. , left, , , , , navNearLeft.jpg, Go left. , left, 1, 4, 20, 10, 81620443, Wed Nov 15 2017 15:05:19 GMT-0500 (Eastern Standard Time), Road_Intersection, 60
, , , , , , , , , , , , right, 1, 1.150000000000034, , , , , , , , , , , , navNearLeft.jpg, Go away. , right, , , , , navNearLeft.jpg, Go away. , right, 1, 5, 21, 6, 81620443, Wed Nov 15 2017 15:05:19 GMT-0500 (Eastern Standard Time), Road_Intersection, 60
, , , , , , , , , , , , left, 1, 1.8480000000000132, , , , , , , , , , , , navFarRight.jpg, Go away. , left, , , , , navFarRight.jpg, Go away. , left, 1, 6, 22, 5, 81620443, Wed Nov 15 2017 15:05:19 GMT-0500 (Eastern Standard Time), Road_Intersection, 60
, , , , , , , , , , , , right, 1, 1.2490000000000236, , , , , , , , , , , , navNearRight.jpg, Go home., right, , , , , navNearRight.jpg, Go home., right, 1, 7, 23, 3, 81620443, Wed Nov 15 2017 15:05:19 GMT-0500 (Eastern Standard Time), Road_Intersection, 60
, , , , , , , , , , , , left, 1, 1.4840000000000373, , , , , , , , , , , , navFarLeft.jpg, Go home., left, , , , , navFarLeft.jpg, Go home., left, 1, 8, 24, 0, 81620443, Wed Nov 15 2017 15:05:19 GMT-0500 (Eastern Standard Time), Road_Intersection, 60
, , , , , , , , , , , , right, 1, 1.0149999999999864, , , , , , , , , , , , navNearRight.jpg, Go right. , right, , , , , navNearRight.jpg, Go right. , right, 1, 9, 25, 15, 81620443, Wed Nov 15 2017 15:05:19 GMT-0500 (Eastern Standard Time), Road_Intersection, 60
, , , , , , , , , , , , left, 1, 3.9960000000000377, , , , , , , , , , , , navFarLeft.jpg, Go right. , left, , , , , navFarLeft.jpg, Go right. , left, 1, 10, 26, 12, 81620443, Wed Nov 15 2017 15:05:19 GMT-0500 (Eastern Standard Time), Road_Intersection, 60
, , , , , , , , , , , , right, 1, 2.7309999999999945, , , , , , , , , , , , navFarRight.jpg, Go home., right, , , , , navFarRight.jpg, Go home., right, 1, 11, 27, 1, 81620443, Wed Nov 15 2017 15:05:19 GMT-0500 (Eastern Standard Time), Road_Intersection, 60
, , , , , , , , , , , , right, 1, 4.26400000000001, , , , , , , , , , , , navFarLeft.jpg, Go away. , right, , , , , navFarLeft.jpg, Go away. , right, 1, 12, 28, 4, 81620443, Wed Nov 15 2017 15:05:19 GMT-0500 (Eastern Standard Time), Road_Intersection, 60
, , , , , , , , , , , , left, 1, 1.0319999999999823, , , , , , , , , , , , navNearRight.jpg, Go away. , left, , , , , navNearRight.jpg, Go away. , left, 1, 13, 29, 7, 81620443, Wed Nov 15 2017 15:05:19 GMT-0500 (Eastern Standard Time), Road_Intersection, 60
, , , , , , , , , , , , right, 1, 8.343000000000018, , , , , , , , , , , , navFarRight.jpg, Go left. , right, , , , , navFarRight.jpg, Go left. , right, 1, 14, 30, 9, 81620443, Wed Nov 15 2017 15:05:19 GMT-0500 (Eastern Standard Time), Road_Intersection, 60
, , , , , , , , , , , , left, 1, 1.2989999999999782, , , , , , , , , , , , navNearLeft.jpg, Go home., left, , , , , navNearLeft.jpg, Go home., left, 1, 15, 31, 2, 81620443, Wed Nov 15 2017 15:05:19 GMT-0500 (Eastern Standard Time), Road_Intersection, 60
, , , , , , , , , , , , right, 1, 5.1129999999999995, , , , , , , , , , , , navFarRight.jpg, Go left. , right, , , , , navFarRight.jpg, Go left. , right, 2, 0, 32, 9, 81620443, Wed Nov 15 2017 15:05:19 GMT-0500 (Eastern Standard Time), Road_Intersection, 60
, , , , , , , , , , , , right, 1, 0.8660000000000423, , , , , , , , , , , , navFarLeft.jpg, Go away. , right, , , , , navFarLeft.jpg, Go away. , right, 2, 1, 33, 4, 81620443, Wed Nov 15 2017 15:05:19 GMT-0500 (Eastern Standard Time), Road_Intersection, 60
, , , , , , , , , , , , right, 1, 1.3480000000000132, , , , , , , , , , , , navNearLeft.jpg, Go right. , right, , , , , navNearLeft.jpg, Go right. , right, 2, 2, 34, 14, 81620443, Wed Nov 15 2017 15:05:19 GMT-0500 (Eastern Standard Time), Road_Intersection, 60
, , , , , , , , , , , , left, 1, 0.882000000000005, , , , , , , , , , , , navNearRight.jpg, Go away. , left, , , , , navNearRight.jpg, Go away. , left, 2, 3, 35, 7, 81620443, Wed Nov 15 2017 15:05:19 GMT-0500 (Eastern Standard Time), Road_Intersection, 60
, , , , , , , , , , , , left, 1, 0.8179999999999836, , , , , , , , , , , , navNearLeft.jpg, Go home., left, , , , , navNearLeft.jpg, Go home., left, 2, 4, 36, 2, 81620443, Wed Nov 15 2017 15:05:19 GMT-0500 (Eastern Standard Time), Road_Intersection, 60
, , , , , , , , , , , , left, 1, 1.6149999999999523, , , , , , , , , , , , navFarRight.jpg, Go away. , left, , , , , navFarRight.jpg, Go away. , left, 2, 5, 37, 5, 81620443, Wed Nov 15 2017 15:05:19 GMT-0500 (Eastern Standard Time), Road_Intersection, 60
, , , , , , , , , , , , left, 1, 1.233000000000004, , , , , , , , , , , , navNearRight.jpg, Go left. , left, , , , , navNearRight.jpg, Go left. , left, 2, 6, 38, 11, 81620443, Wed Nov 15 2017 15:05:19 GMT-0500 (Eastern Standard Time), Road_Intersection, 60
, , , , , , , , , , , , left, 1, 0.7319999999999709, , , , , , , , , , , , navFarLeft.jpg, Go home., left, , , , , navFarLeft.jpg, Go home., left, 2, 7, 39, 0, 81620443, Wed Nov 15 2017 15:05:19 GMT-0500 (Eastern Standard Time), Road_Intersection, 60
, , , , , , , , , , , , right, 1, 0.7160000000000082, , , , , , , , , , , , navNearRight.jpg, Go home., right, , , , , navNearRight.jpg, Go home., right, 2, 8, 40, 3, 81620443, Wed Nov 15 2017 15:05:19 GMT-0500 (Eastern Standard Time), Road_Intersection, 60
, , , , , , , , , , , , left, 1, 1.3659999999999854, , , , , , , , , , , , navNearLeft.jpg, Go left. , left, , , , , navNearLeft.jpg, Go left. , left, 2, 9, 41, 10, 81620443, Wed Nov 15 2017 15:05:19 GMT-0500 (Eastern Standard Time), Road_Intersection, 60
, , , , , , , , , , , , right, 1, 2.598000000000013, , , , , , , , , , , , navFarLeft.jpg, Go left. , right, , , , , navFarLeft.jpg, Go left. , right, 2, 10, 42, 8, 81620443, Wed Nov 15 2017 15:05:19 GMT-0500 (Eastern Standard Time), Road_Intersection, 60
, , , , , , , , , , , , right, 1, 1.2139999999999986, , , , , , , , , , , , navFarRight.jpg, Go home., right, , , , , navFarRight.jpg, Go home., right, 2, 11, 43, 1, 81620443, Wed Nov 15 2017 15:05:19 GMT-0500 (Eastern Standard Time), Road_Intersection, 60
, , , , , , , , , , , , left, 1, 2.5639999999999645, , , , , , , , , , , , navFarRight.jpg, Go right. , left, , , , , navFarRight.jpg, Go right. , left, 2, 12, 44, 13, 81620443, Wed Nov 15 2017 15:05:19 GMT-0500 (Eastern Standard Time), Road_Intersection, 60
, , , , , , , , , , , , right, 1, 0.9159999999999968, , , , , , , , , , , , navNearLeft.jpg, Go away. , right, , , , , navNearLeft.jpg, Go away. , right, 2, 13, 45, 6, 81620443, Wed Nov 15 2017 15:05:19 GMT-0500 (Eastern Standard Time), Road_Intersection, 60
, , , , , , , , , , , , left, 1, 2.5319999999999823, , , , , , , , , , , , navFarLeft.jpg, Go right. , left, , , , , navFarLeft.jpg, Go right. , left, 2, 14, 46, 12, 81620443, Wed Nov 15 2017 15:05:19 GMT-0500 (Eastern Standard Time), Road_Intersection, 60
, , , , , , , , , , , , right, 1, 4.1959999999999695, , , , , , , , , , , , navNearRight.jpg, Go right. , right, , , , , navNearRight.jpg, Go right. , right, 2, 15, 47, 15, 81620443, Wed Nov 15 2017 15:05:19 GMT-0500 (Eastern Standard Time), Road_Intersection, 60
, , , , , , , , , , , , left, 1, 1.231999999999971, , , , , , , , , , , , navFarLeft.jpg, Go home., left, , , , , navFarLeft.jpg, Go home., left, 3, 0, 48, 0, 81620443, Wed Nov 15 2017 15:05:19 GMT-0500 (Eastern Standard Time), Road_Intersection, 60
, , , , , , , , , , , , right, 1, 0.7330000000000041, , , , , , , , , , , , navNearLeft.jpg, Go right. , right, , , , , navNearLeft.jpg, Go right. , right, 3, 1, 49, 14, 81620443, Wed Nov 15 2017 15:05:19 GMT-0500 (Eastern Standard Time), Road_Intersection, 60
, , , , , , , , , , , , left, 1, 1.882000000000005, , , , , , , , , , , , navNearRight.jpg, Go left. , left, , , , , navNearRight.jpg, Go left. , left, 3, 2, 50, 11, 81620443, Wed Nov 15 2017 15:05:19 GMT-0500 (Eastern Standard Time), Road_Intersection, 60
, , , , , , , , , , , , left, 1, 0.9490000000000123, , , , , , , , , , , , navNearLeft.jpg, Go left. , left, , , , , navNearLeft.jpg, Go left. , left, 3, 3, 51, 10, 81620443, Wed Nov 15 2017 15:05:19 GMT-0500 (Eastern Standard Time), Road_Intersection, 60
, , , , , , , , , , , , right, 1, 0.9159999999999968, , , , , , , , , , , , navNearRight.jpg, Go home., right, , , , , navNearRight.jpg, Go home., right, 3, 4, 52, 3, 81620443, Wed Nov 15 2017 15:05:19 GMT-0500 (Eastern Standard Time), Road_Intersection, 60
, , , , , , , , , , , , left, 1, 1.4990000000000236, , , , , , , , , , , , navFarRight.jpg, Go right. , left, , , , , navFarRight.jpg, Go right. , left, 3, 5, 53, 13, 81620443, Wed Nov 15 2017 15:05:19 GMT-0500 (Eastern Standard Time), Road_Intersection, 60
, , , , , , , , , , , , right, 1, 2.6639999999999873, , , , , , , , , , , , navFarRight.jpg, Go left. , right, , , , , navFarRight.jpg, Go left. , right, 3, 6, 54, 9, 81620443, Wed Nov 15 2017 15:05:19 GMT-0500 (Eastern Standard Time), Road_Intersection, 60
, , , , , , , , , , , , right, 1, 1.7649999999999864, , , , , , , , , , , , navNearLeft.jpg, Go away. , right, , , , , navNearLeft.jpg, Go away. , right, 3, 7, 55, 6, 81620443, Wed Nov 15 2017 15:05:19 GMT-0500 (Eastern Standard Time), Road_Intersection, 60
, , , , , , , , , , , , left, 1, 0.8160000000000309, , , , , , , , , , , , navNearRight.jpg, Go away. , left, , , , , navNearRight.jpg, Go away. , left, 3, 8, 56, 7, 81620443, Wed Nov 15 2017 15:05:19 GMT-0500 (Eastern Standard Time), Road_Intersection, 60
, , , , , , , , , , , , left, 1, 1.0819999999999936, , , , , , , , , , , , navNearLeft.jpg, Go home., left, , , , , navNearLeft.jpg, Go home., left, 3, 9, 57, 2, 81620443, Wed Nov 15 2017 15:05:19 GMT-0500 (Eastern Standard Time), Road_Intersection, 60
, , , , , , , , , , , , right, 1, 3.430000000000007, , , , , , , , , , , , navFarLeft.jpg, Go left. , right, , , , , navFarLeft.jpg, Go left. , right, 3, 10, 58, 8, 81620443, Wed Nov 15 2017 15:05:19 GMT-0500 (Eastern Standard Time), Road_Intersection, 60
, , , , , , , , , , , , right, 1, 5.312999999999988, , , , , , , , , , , , navFarLeft.jpg, Go away. , right, , , , , navFarLeft.jpg, Go away. , right, 3, 11, 59, 4, 81620443, Wed Nov 15 2017 15:05:19 GMT-0500 (Eastern Standard Time), Road_Intersection, 60
, , , , , , , , , , , , right, 1, 2.0160000000000196, , , , , , , , , , , , navFarRight.jpg, Go home., right, , , , , navFarRight.jpg, Go home., right, 3, 12, 60, 1, 81620443, Wed Nov 15 2017 15:05:19 GMT-0500 (Eastern Standard Time), Road_Intersection, 60
, , , , , , , , , , , , right, 1, 2.447999999999979, , , , , , , , , , , , navNearRight.jpg, Go right. , right, , , , , navNearRight.jpg, Go right. , right, 3, 13, 61, 15, 81620443, Wed Nov 15 2017 15:05:19 GMT-0500 (Eastern Standard Time), Road_Intersection, 60
, , , , , , , , , , , , left, 1, 2.031000000000006, , , , , , , , , , , , navFarLeft.jpg, Go right. , left, , , , , navFarLeft.jpg, Go right. , left, 3, 14, 62, 12, 81620443, Wed Nov 15 2017 15:05:19 GMT-0500 (Eastern Standard Time), Road_Intersection, 60
, , , , , , , , , , , , left, 1, 2.1160000000000423, , , , , , , , , , , , navFarRight.jpg, Go away. , left, , , , , navFarRight.jpg, Go away. , left, 3, 15, 63, 5, 81620443, Wed Nov 15 2017 15:05:19 GMT-0500 (Eastern Standard Time), Road_Intersection, 60
