Continue.keys, Continue.rt, instructions_response.keys, instructions_response.rt, repeat_response.keys, repeat_response.rt, key_resp_5.keys, key_resp_5.rt, key_resp_2.keys, key_resp_2.rt, key_resp_4.keys, key_resp_4.rt, Trials_response.keys, Trials_response.corr, Trials_response.rt, Block_Continue.keys, Block_Continue.rt, Image, instructions_1_loop.thisRepN, instructions_1_loop.thisTrialN, instructions_1_loop.thisN, instructions_1_loop.thisIndex, instructions_2_repeat.thisRepN, instructions_2_repeat.thisTrialN, instructions_2_repeat.thisN, instructions_2_repeat.thisIndex, stim, prompt, answer, trials_2.thisRepN, trials_2.thisTrialN, trials_2.thisN, trials_2.thisIndex, stim, prompt, answer, trials.thisRepN, trials.thisTrialN, trials.thisN, trials.thisIndex, participant, date, expName, frameRate
space, 1.7370000000000019, space, 12.663999999999994, , , , , , , , , , , , , , Slide15.JPG, 0, 0, 0, 0, , , , , , , , , , , , , , , , , , , 87779685, Mon Aug 14 2017 17:10:33 GMT-0400 (Eastern Daylight Time), Road_Intersection, 60
, , space, 7.475999999999999, , , , , , , , , , , , , , Slide16.JPG, 0, 1, 1, 1, , , , , , , , , , , , , , , , , , , 87779685, Mon Aug 14 2017 17:10:33 GMT-0400 (Eastern Daylight Time), Road_Intersection, 60
, , space, 4.382999999999996, , , , , , , , , , , , , , Slide17.JPG, 0, 2, 2, 2, , , , , , , , , , , , , , , , , , , 87779685, Mon Aug 14 2017 17:10:33 GMT-0400 (Eastern Daylight Time), Road_Intersection, 60
, , space, 1.3740000000000023, , , , , , , , , , , , , , Slide18.JPG, 0, 3, 3, 3, , , , , , , , , , , , , , , , , , , 87779685, Mon Aug 14 2017 17:10:33 GMT-0400 (Eastern Daylight Time), Road_Intersection, 60
, , space, 13.664000000000001, , , , , , , , , , , , , , Slide19.JPG, 0, 4, 4, 4, , , , , , , , , , , , , , , , , , , 87779685, Mon Aug 14 2017 17:10:33 GMT-0400 (Eastern Daylight Time), Road_Intersection, 60
, , space, 8.507000000000005, , , , , , , , , , , , , , Slide20.JPG, 0, 5, 5, 5, , , , , , , , , , , , , , , , , , , 87779685, Mon Aug 14 2017 17:10:33 GMT-0400 (Eastern Daylight Time), Road_Intersection, 60
, , space, 4.949000000000012, , , , , , , , , , , , , , Slide21.JPG, 0, 6, 6, 6, , , , , , , , , , , , , , , , , , , 87779685, Mon Aug 14 2017 17:10:33 GMT-0400 (Eastern Daylight Time), Road_Intersection, 60
, , space, 2.8699999999999903, , , , , , , , , , , , , , Slide22.JPG, 0, 7, 7, 7, , , , , , , , , , , , , , , , , , , 87779685, Mon Aug 14 2017 17:10:33 GMT-0400 (Eastern Daylight Time), Road_Intersection, 60
, , space, 1.6329999999999956, , , , , , , , , , , , , , Slide23.JPG, 0, 8, 8, 8, , , , , , , , , , , , , , , , , , , 87779685, Mon Aug 14 2017 17:10:33 GMT-0400 (Eastern Daylight Time), Road_Intersection, 60
, , space, 0.8590000000000089, , , , , , , , , , , , , , Slide24.JPG, 0, 9, 9, 9, , , , , , , , , , , , , , , , , , , 87779685, Mon Aug 14 2017 17:10:33 GMT-0400 (Eastern Daylight Time), Road_Intersection, 60
, , space, 0.11999999999999034, , , , , , , , , , , , , , Slide25.JPG, 0, 10, 10, 10, , , , , , , , , , , , , , , , , , , 87779685, Mon Aug 14 2017 17:10:33 GMT-0400 (Eastern Daylight Time), Road_Intersection, 60
, , space, 1.375, , , , , , , , , , , , , , Slide26.JPG, 0, 11, 11, 11, , , , , , , , , , , , , , , , , , , 87779685, Mon Aug 14 2017 17:10:33 GMT-0400 (Eastern Daylight Time), Road_Intersection, 60
, , space, 1.5630000000000024, , , , , , , , , , , , , , Slide27.JPG, 0, 12, 12, 12, , , , , , , , , , , , , , , , , , , 87779685, Mon Aug 14 2017 17:10:33 GMT-0400 (Eastern Daylight Time), Road_Intersection, 60
, , space, 4.570999999999998, , , , , , , , , , , , , , Slide28.JPG, 0, 13, 13, 13, , , , , , , , , , , , , , , , , , , 87779685, Mon Aug 14 2017 17:10:33 GMT-0400 (Eastern Daylight Time), Road_Intersection, 60
, , , , 0, 3.368000000000009, space, 4.658000000000001, left, 1.9919999999999902, , , , , , , , , , , , , , , , , navFarLeft.jpg, Go right., left, 0, 0, 0, 0, navFarLeft.jpg, Go right., left, , , , , 87779685, Mon Aug 14 2017 17:10:33 GMT-0400 (Eastern Daylight Time), Road_Intersection, 60
, , , , , , , , right, 1.254000000000019, , , , , , , , , , , , , , , , , navNearLeft.jpg, Go away., right, 0, 1, 1, 1, navNearLeft.jpg, Go away., right, , , , , 87779685, Mon Aug 14 2017 17:10:33 GMT-0400 (Eastern Daylight Time), Road_Intersection, 60
, , , , , , , , right, 1.975999999999999, , , , , , , , , , , , , , , , , navFarRight.jpg, Go left., right, 0, 2, 2, 2, navFarRight.jpg, Go left., right, , , , , 87779685, Mon Aug 14 2017 17:10:33 GMT-0400 (Eastern Daylight Time), Road_Intersection, 60
, , , , , , , , right, 0.8080000000000211, , , , , , , , , , , , , , , , , navNearRight.jpg, Go home. , right, 0, 3, 3, 3, navNearRight.jpg, Go home. , right, , , , , 87779685, Mon Aug 14 2017 17:10:33 GMT-0400 (Eastern Daylight Time), Road_Intersection, 60
, , , , , , , , left, 0.9959999999999809, , , , , , , , , , , , , , , , , navNearLeft.jpg, Go left., left, 0, 4, 4, 4, navNearLeft.jpg, Go left., left, , , , , 87779685, Mon Aug 14 2017 17:10:33 GMT-0400 (Eastern Daylight Time), Road_Intersection, 60
, , , , , , , , right, 0.6009999999999991, , , , , , , , , , , , , , , , , navNearRight.jpg, Go home., right, 0, 5, 5, 5, navNearRight.jpg, Go home., right, , , , , 87779685, Mon Aug 14 2017 17:10:33 GMT-0400 (Eastern Daylight Time), Road_Intersection, 60
, , , , , , , , right, 0.8079999999999927, , , , , , , , , , , , , , , , , navNearLeft.jpg, Go away., right, 0, 6, 6, 6, navNearLeft.jpg, Go away., right, , , , , 87779685, Mon Aug 14 2017 17:10:33 GMT-0400 (Eastern Daylight Time), Road_Intersection, 60
, , , , , , , , right, 1.5109999999999957, , , , , , , , , , , , , , , , , navFarLeft.jpg, Go right., left, 0, 7, 7, 7, navFarLeft.jpg, Go right., left, , , , , 87779685, Mon Aug 14 2017 17:10:33 GMT-0400 (Eastern Daylight Time), Road_Intersection, 60
, , , , , , , , , , space, 4.861999999999995, left, 1, 0.9139999999999873, , , , , , , , , , , , navNearLeft.jpg, Go home., left, , , , , navNearLeft.jpg, Go home., left, 0, 0, 0, 2, 87779685, Mon Aug 14 2017 17:10:33 GMT-0400 (Eastern Daylight Time), Road_Intersection, 60
, , , , , , , , , , , , left, 0, 1.1510000000000105, , , , , , , , , , , , navFarLeft.jpg, Go away. , right, , , , , navFarLeft.jpg, Go away. , right, 0, 1, 1, 4, 87779685, Mon Aug 14 2017 17:10:33 GMT-0400 (Eastern Daylight Time), Road_Intersection, 60
, , , , , , , , , , , , left, 1, 1.8400000000000034, , , , , , , , , , , , navFarRight.jpg, Go right. , left, , , , , navFarRight.jpg, Go right. , left, 0, 2, 2, 13, 87779685, Mon Aug 14 2017 17:10:33 GMT-0400 (Eastern Daylight Time), Road_Intersection, 60
, , , , , , , , , , , , left, 1, 0.9279999999999973, , , , , , , , , , , , navNearLeft.jpg, Go left. , left, , , , , navNearLeft.jpg, Go left. , left, 0, 3, 3, 10, 87779685, Mon Aug 14 2017 17:10:33 GMT-0400 (Eastern Daylight Time), Road_Intersection, 60
, , , , , , , , , , , , right, 0, 1.5809999999999889, , , , , , , , , , , , navFarRight.jpg, Go away. , left, , , , , navFarRight.jpg, Go away. , left, 0, 4, 4, 5, 87779685, Mon Aug 14 2017 17:10:33 GMT-0400 (Eastern Daylight Time), Road_Intersection, 60
, , , , , , , , , , , , right, 0, 1.1340000000000146, , , , , , , , , , , , navFarLeft.jpg, Go home., left, , , , , navFarLeft.jpg, Go home., left, 0, 5, 5, 0, 87779685, Mon Aug 14 2017 17:10:33 GMT-0400 (Eastern Daylight Time), Road_Intersection, 60
, , , , , , , , , , , , right, 1, 0.8930000000000007, , , , , , , , , , , , navNearLeft.jpg, Go right. , right, , , , , navNearLeft.jpg, Go right. , right, 0, 6, 6, 14, 87779685, Mon Aug 14 2017 17:10:33 GMT-0400 (Eastern Daylight Time), Road_Intersection, 60
, , , , , , , , , , , , right, 1, 2.7339999999999804, , , , , , , , , , , , navFarRight.jpg, Go left. , right, , , , , navFarRight.jpg, Go left. , right, 0, 7, 7, 9, 87779685, Mon Aug 14 2017 17:10:33 GMT-0400 (Eastern Daylight Time), Road_Intersection, 60
, , , , , , , , , , , , right, 1, 1.0819999999999936, , , , , , , , , , , , navNearRight.jpg, Go home., right, , , , , navNearRight.jpg, Go home., right, 0, 8, 8, 3, 87779685, Mon Aug 14 2017 17:10:33 GMT-0400 (Eastern Daylight Time), Road_Intersection, 60
, , , , , , , , , , , , left, 1, 0.9970000000000141, , , , , , , , , , , , navNearRight.jpg, Go away. , left, , , , , navNearRight.jpg, Go away. , left, 0, 9, 9, 7, 87779685, Mon Aug 14 2017 17:10:33 GMT-0400 (Eastern Daylight Time), Road_Intersection, 60
, , , , , , , , , , , , right, 1, 0.9269999999999925, , , , , , , , , , , , navNearLeft.jpg, Go away. , right, , , , , navNearLeft.jpg, Go away. , right, 0, 10, 10, 6, 87779685, Mon Aug 14 2017 17:10:33 GMT-0400 (Eastern Daylight Time), Road_Intersection, 60
, , , , , , , , , , , , right, 1, 1.1340000000000146, , , , , , , , , , , , navNearRight.jpg, Go right. , right, , , , , navNearRight.jpg, Go right. , right, 0, 11, 11, 15, 87779685, Mon Aug 14 2017 17:10:33 GMT-0400 (Eastern Daylight Time), Road_Intersection, 60
, , , , , , , , , , , , left, 0, 1.9390000000000214, , , , , , , , , , , , navFarLeft.jpg, Go left. , right, , , , , navFarLeft.jpg, Go left. , right, 0, 12, 12, 8, 87779685, Mon Aug 14 2017 17:10:33 GMT-0400 (Eastern Daylight Time), Road_Intersection, 60
, , , , , , , , , , , , left, 1, 2.8870000000000005, , , , , , , , , , , , navFarLeft.jpg, Go right. , left, , , , , navFarLeft.jpg, Go right. , left, 0, 13, 13, 12, 87779685, Mon Aug 14 2017 17:10:33 GMT-0400 (Eastern Daylight Time), Road_Intersection, 60
, , , , , , , , , , , , left, 0, 1.7180000000000177, , , , , , , , , , , , navFarRight.jpg, Go home., right, , , , , navFarRight.jpg, Go home., right, 0, 14, 14, 1, 87779685, Mon Aug 14 2017 17:10:33 GMT-0400 (Eastern Daylight Time), Road_Intersection, 60
, , , , , , , , , , , , left, 1, 0.8590000000000089, , , , , , , , , , , , navNearRight.jpg, Go left. , left, , , , , navNearRight.jpg, Go left. , left, 0, 15, 15, 11, 87779685, Mon Aug 14 2017 17:10:33 GMT-0400 (Eastern Daylight Time), Road_Intersection, 60
, , , , , , , , , , , , left, 1, 0.9449999999999932, , , , , , , , , , , , navNearLeft.jpg, Go home., left, , , , , navNearLeft.jpg, Go home., left, 1, 0, 16, 2, 87779685, Mon Aug 14 2017 17:10:33 GMT-0400 (Eastern Daylight Time), Road_Intersection, 60
, , , , , , , , , , , , right, 1, 1.0139999999999816, , , , , , , , , , , , navNearLeft.jpg, Go away. , right, , , , , navNearLeft.jpg, Go away. , right, 1, 1, 17, 6, 87779685, Mon Aug 14 2017 17:10:33 GMT-0400 (Eastern Daylight Time), Road_Intersection, 60
, , , , , , , , , , , , left, 1, 0.7900000000000205, , , , , , , , , , , , navNearRight.jpg, Go left. , left, , , , , navNearRight.jpg, Go left. , left, 1, 2, 18, 11, 87779685, Mon Aug 14 2017 17:10:33 GMT-0400 (Eastern Daylight Time), Road_Intersection, 60
, , , , , , , , , , , , right, 1, 0.8249999999999886, , , , , , , , , , , , navNearRight.jpg, Go home., right, , , , , navNearRight.jpg, Go home., right, 1, 3, 19, 3, 87779685, Mon Aug 14 2017 17:10:33 GMT-0400 (Eastern Daylight Time), Road_Intersection, 60
, , , , , , , , , , , , left, 0, 1.203000000000003, , , , , , , , , , , , navFarLeft.jpg, Go away. , right, , , , , navFarLeft.jpg, Go away. , right, 1, 4, 20, 4, 87779685, Mon Aug 14 2017 17:10:33 GMT-0400 (Eastern Daylight Time), Road_Intersection, 60
, , , , , , , , , , , , right, 1, 0.8419999999999845, , , , , , , , , , , , navNearRight.jpg, Go right. , right, , , , , navNearRight.jpg, Go right. , right, 1, 5, 21, 15, 87779685, Mon Aug 14 2017 17:10:33 GMT-0400 (Eastern Daylight Time), Road_Intersection, 60
, , , , , , , , , , , , right, 1, 1.1170000000000186, , , , , , , , , , , , navNearLeft.jpg, Go right. , right, , , , , navNearLeft.jpg, Go right. , right, 1, 6, 22, 14, 87779685, Mon Aug 14 2017 17:10:33 GMT-0400 (Eastern Daylight Time), Road_Intersection, 60
, , , , , , , , , , , , left, 0, 1.117999999999995, , , , , , , , , , , , navFarRight.jpg, Go home., right, , , , , navFarRight.jpg, Go home., right, 1, 7, 23, 1, 87779685, Mon Aug 14 2017 17:10:33 GMT-0400 (Eastern Daylight Time), Road_Intersection, 60
, , , , , , , , , , , , left, 1, 1.323000000000036, , , , , , , , , , , , navNearLeft.jpg, Go left. , left, , , , , navNearLeft.jpg, Go left. , left, 1, 8, 24, 10, 87779685, Mon Aug 14 2017 17:10:33 GMT-0400 (Eastern Daylight Time), Road_Intersection, 60
, , , , , , , , , , , , left, 1, 1.632000000000005, , , , , , , , , , , , navFarLeft.jpg, Go right. , left, , , , , navFarLeft.jpg, Go right. , left, 1, 9, 25, 12, 87779685, Mon Aug 14 2017 17:10:33 GMT-0400 (Eastern Daylight Time), Road_Intersection, 60
, , , , , , , , , , , , left, 1, 2.954999999999984, , , , , , , , , , , , navFarRight.jpg, Go away. , left, , , , , navFarRight.jpg, Go away. , left, 1, 10, 26, 5, 87779685, Mon Aug 14 2017 17:10:33 GMT-0400 (Eastern Daylight Time), Road_Intersection, 60
, , , , , , , , , , , , right, 1, 2.733000000000004, , , , , , , , , , , , navFarRight.jpg, Go left. , right, , , , , navFarRight.jpg, Go left. , right, 1, 11, 27, 9, 87779685, Mon Aug 14 2017 17:10:33 GMT-0400 (Eastern Daylight Time), Road_Intersection, 60
, , , , , , , , , , , , left, 1, 1.1680000000000064, , , , , , , , , , , , navNearRight.jpg, Go away. , left, , , , , navNearRight.jpg, Go away. , left, 1, 12, 28, 7, 87779685, Mon Aug 14 2017 17:10:33 GMT-0400 (Eastern Daylight Time), Road_Intersection, 60
, , , , , , , , , , , , right, 0, 1.4260000000000446, , , , , , , , , , , , navFarLeft.jpg, Go home., left, , , , , navFarLeft.jpg, Go home., left, 1, 13, 29, 0, 87779685, Mon Aug 14 2017 17:10:33 GMT-0400 (Eastern Daylight Time), Road_Intersection, 60
, , , , , , , , , , , , right, 1, 2.783999999999992, , , , , , , , , , , , navFarLeft.jpg, Go left. , right, , , , , navFarLeft.jpg, Go left. , right, 1, 14, 30, 8, 87779685, Mon Aug 14 2017 17:10:33 GMT-0400 (Eastern Daylight Time), Road_Intersection, 60
, , , , , , , , , , , , left, 1, 2.8530000000000086, , , , , , , , , , , , navFarRight.jpg, Go right. , left, , , , , navFarRight.jpg, Go right. , left, 1, 15, 31, 13, 87779685, Mon Aug 14 2017 17:10:33 GMT-0400 (Eastern Daylight Time), Road_Intersection, 60
, , , , , , , , , , , , left, 1, 1.5299999999999727, , , , , , , , , , , , navFarRight.jpg, Go right. , left, , , , , navFarRight.jpg, Go right. , left, 2, 0, 32, 13, 87779685, Mon Aug 14 2017 17:10:33 GMT-0400 (Eastern Daylight Time), Road_Intersection, 60
, , , , , , , , , , , , left, 1, 1.4950000000000045, , , , , , , , , , , , navFarLeft.jpg, Go right. , left, , , , , navFarLeft.jpg, Go right. , left, 2, 1, 33, 12, 87779685, Mon Aug 14 2017 17:10:33 GMT-0400 (Eastern Daylight Time), Road_Intersection, 60
, , , , , , , , , , , , left, 1, 2.336999999999989, , , , , , , , , , , , navFarLeft.jpg, Go home., left, , , , , navFarLeft.jpg, Go home., left, 2, 2, 34, 0, 87779685, Mon Aug 14 2017 17:10:33 GMT-0400 (Eastern Daylight Time), Road_Intersection, 60
, , , , , , , , , , , , left, 1, 1.5639999999999645, , , , , , , , , , , , navNearLeft.jpg, Go home., left, , , , , navNearLeft.jpg, Go home., left, 2, 3, 35, 2, 87779685, Mon Aug 14 2017 17:10:33 GMT-0400 (Eastern Daylight Time), Road_Intersection, 60
, , , , , , , , , , , , right, 1, 2.062999999999988, , , , , , , , , , , , navFarRight.jpg, Go left. , right, , , , , navFarRight.jpg, Go left. , right, 2, 4, 36, 9, 87779685, Mon Aug 14 2017 17:10:33 GMT-0400 (Eastern Daylight Time), Road_Intersection, 60
, , , , , , , , , , , , left, 1, 1.4089999999999918, , , , , , , , , , , , navNearRight.jpg, Go away. , left, , , , , navNearRight.jpg, Go away. , left, 2, 5, 37, 7, 87779685, Mon Aug 14 2017 17:10:33 GMT-0400 (Eastern Daylight Time), Road_Intersection, 60
, , , , , , , , , , , , right, 1, 1.8560000000000514, , , , , , , , , , , , navFarLeft.jpg, Go left. , right, , , , , navFarLeft.jpg, Go left. , right, 2, 6, 38, 8, 87779685, Mon Aug 14 2017 17:10:33 GMT-0400 (Eastern Daylight Time), Road_Intersection, 60
, , , , , , , , , , , , right, 1, 1.2889999999999873, , , , , , , , , , , , navNearLeft.jpg, Go away. , right, , , , , navNearLeft.jpg, Go away. , right, 2, 7, 39, 6, 87779685, Mon Aug 14 2017 17:10:33 GMT-0400 (Eastern Daylight Time), Road_Intersection, 60
, , , , , , , , , , , , left, 1, 1.2030000000000314, , , , , , , , , , , , navNearRight.jpg, Go left. , left, , , , , navNearRight.jpg, Go left. , left, 2, 8, 40, 11, 87779685, Mon Aug 14 2017 17:10:33 GMT-0400 (Eastern Daylight Time), Road_Intersection, 60
, , , , , , , , , , , , left, 1, 1.0989999999999895, , , , , , , , , , , , navNearLeft.jpg, Go left. , left, , , , , navNearLeft.jpg, Go left. , left, 2, 9, 41, 10, 87779685, Mon Aug 14 2017 17:10:33 GMT-0400 (Eastern Daylight Time), Road_Intersection, 60
, , , , , , , , , , , , right, 1, 1.7010000000000218, , , , , , , , , , , , navFarLeft.jpg, Go away. , right, , , , , navFarLeft.jpg, Go away. , right, 2, 10, 42, 4, 87779685, Mon Aug 14 2017 17:10:33 GMT-0400 (Eastern Daylight Time), Road_Intersection, 60
, , , , , , , , , , , , right, 0, 2.680999999999983, , , , , , , , , , , , navFarRight.jpg, Go away. , left, , , , , navFarRight.jpg, Go away. , left, 2, 11, 43, 5, 87779685, Mon Aug 14 2017 17:10:33 GMT-0400 (Eastern Daylight Time), Road_Intersection, 60
, , , , , , , , , , , , left, 0, 2.062000000000012, , , , , , , , , , , , navFarRight.jpg, Go home., right, , , , , navFarRight.jpg, Go home., right, 2, 12, 44, 1, 87779685, Mon Aug 14 2017 17:10:33 GMT-0400 (Eastern Daylight Time), Road_Intersection, 60
, , , , , , , , , , , , right, 1, 0.7909999999999968, , , , , , , , , , , , navNearRight.jpg, Go right. , right, , , , , navNearRight.jpg, Go right. , right, 2, 13, 45, 15, 87779685, Mon Aug 14 2017 17:10:33 GMT-0400 (Eastern Daylight Time), Road_Intersection, 60
, , , , , , , , , , , , right, 1, 1.1019999999999754, , , , , , , , , , , , navNearLeft.jpg, Go right. , right, , , , , navNearLeft.jpg, Go right. , right, 2, 14, 46, 14, 87779685, Mon Aug 14 2017 17:10:33 GMT-0400 (Eastern Daylight Time), Road_Intersection, 60
, , , , , , , , , , , , right, 1, 0.9279999999999973, , , , , , , , , , , , navNearRight.jpg, Go home., right, , , , , navNearRight.jpg, Go home., right, 2, 15, 47, 3, 87779685, Mon Aug 14 2017 17:10:33 GMT-0400 (Eastern Daylight Time), Road_Intersection, 60
, , , , , , , , , , , , right, 1, 1.718999999999994, , , , , , , , , , , , navFarLeft.jpg, Go left. , right, , , , , navFarLeft.jpg, Go left. , right, 3, 0, 48, 8, 87779685, Mon Aug 14 2017 17:10:33 GMT-0400 (Eastern Daylight Time), Road_Intersection, 60
, , , , , , , , , , , , left, 0, 2.1650000000000205, , , , , , , , , , , , navFarLeft.jpg, Go away. , right, , , , , navFarLeft.jpg, Go away. , right, 3, 1, 49, 4, 87779685, Mon Aug 14 2017 17:10:33 GMT-0400 (Eastern Daylight Time), Road_Intersection, 60
, , , , , , , , , , , , left, 1, 1.289000000000044, , , , , , , , , , , , navNearLeft.jpg, Go home., left, , , , , navNearLeft.jpg, Go home., left, 3, 2, 50, 2, 87779685, Mon Aug 14 2017 17:10:33 GMT-0400 (Eastern Daylight Time), Road_Intersection, 60
, , , , , , , , , , , , right, 1, 0.7400000000000091, , , , , , , , , , , , navNearRight.jpg, Go right. , right, , , , , navNearRight.jpg, Go right. , right, 3, 3, 51, 15, 87779685, Mon Aug 14 2017 17:10:33 GMT-0400 (Eastern Daylight Time), Road_Intersection, 60
, , , , , , , , , , , , right, 1, 0.8940000000000055, , , , , , , , , , , , navNearRight.jpg, Go home., right, , , , , navNearRight.jpg, Go home., right, 3, 4, 52, 3, 87779685, Mon Aug 14 2017 17:10:33 GMT-0400 (Eastern Daylight Time), Road_Intersection, 60
, , , , , , , , , , , , right, 1, 1.049000000000035, , , , , , , , , , , , navFarRight.jpg, Go left. , right, , , , , navFarRight.jpg, Go left. , right, 3, 5, 53, 9, 87779685, Mon Aug 14 2017 17:10:33 GMT-0400 (Eastern Daylight Time), Road_Intersection, 60
, , , , , , , , , , , , right, 1, 0.9449999999999932, , , , , , , , , , , , navNearLeft.jpg, Go away. , right, , , , , navNearLeft.jpg, Go away. , right, 3, 6, 54, 6, 87779685, Mon Aug 14 2017 17:10:33 GMT-0400 (Eastern Daylight Time), Road_Intersection, 60
, , , , , , , , , , , , left, 0, 1.4950000000000045, , , , , , , , , , , , navFarRight.jpg, Go home., right, , , , , navFarRight.jpg, Go home., right, 3, 7, 55, 1, 87779685, Mon Aug 14 2017 17:10:33 GMT-0400 (Eastern Daylight Time), Road_Intersection, 60
, , , , , , , , , , , , left, 1, 0.7220000000000368, , , , , , , , , , , , navNearRight.jpg, Go away. , left, , , , , navNearRight.jpg, Go away. , left, 3, 8, 56, 7, 87779685, Mon Aug 14 2017 17:10:33 GMT-0400 (Eastern Daylight Time), Road_Intersection, 60
, , , , , , , , , , , , left, 1, 1.9940000000000282, , , , , , , , , , , , navFarRight.jpg, Go away. , left, , , , , navFarRight.jpg, Go away. , left, 3, 9, 57, 5, 87779685, Mon Aug 14 2017 17:10:33 GMT-0400 (Eastern Daylight Time), Road_Intersection, 60
, , , , , , , , , , , , right, 0, 2.474999999999966, , , , , , , , , , , , navFarLeft.jpg, Go home., left, , , , , navFarLeft.jpg, Go home., left, 3, 10, 58, 0, 87779685, Mon Aug 14 2017 17:10:33 GMT-0400 (Eastern Daylight Time), Road_Intersection, 60
, , , , , , , , , , , , right, 1, 1.9250000000000114, , , , , , , , , , , , navNearLeft.jpg, Go right. , right, , , , , navNearLeft.jpg, Go right. , right, 3, 11, 59, 14, 87779685, Mon Aug 14 2017 17:10:33 GMT-0400 (Eastern Daylight Time), Road_Intersection, 60
, , , , , , , , , , , , left, 1, 1.615000000000009, , , , , , , , , , , , navFarLeft.jpg, Go right. , left, , , , , navFarLeft.jpg, Go right. , left, 3, 12, 60, 12, 87779685, Mon Aug 14 2017 17:10:33 GMT-0400 (Eastern Daylight Time), Road_Intersection, 60
, , , , , , , , , , , , left, 1, 1.80600000000004, , , , , , , , , , , , navFarRight.jpg, Go right. , left, , , , , navFarRight.jpg, Go right. , left, 3, 13, 61, 13, 87779685, Mon Aug 14 2017 17:10:33 GMT-0400 (Eastern Daylight Time), Road_Intersection, 60
, , , , , , , , , , , , left, 1, 1.1170000000000186, , , , , , , , , , , , navNearRight.jpg, Go left. , left, , , , , navNearRight.jpg, Go left. , left, 3, 14, 62, 11, 87779685, Mon Aug 14 2017 17:10:33 GMT-0400 (Eastern Daylight Time), Road_Intersection, 60
, , , , , , , , , , , , left, 1, 1.375, , , , , , , , , , , , navNearLeft.jpg, Go left. , left, , , , , navNearLeft.jpg, Go left. , left, 3, 15, 63, 10, 87779685, Mon Aug 14 2017 17:10:33 GMT-0400 (Eastern Daylight Time), Road_Intersection, 60
