Continue.keys, Continue.rt, instructions_response.keys, instructions_response.rt, repeat_response.keys, repeat_response.rt, key_resp_5.keys, key_resp_5.rt, key_resp_2.keys, key_resp_2.rt, key_resp_4.keys, key_resp_4.rt, Trials_response.keys, Trials_response.corr, Trials_response.rt, Block_Continue.keys, Block_Continue.rt, Image, instructions_1_loop.thisRepN, instructions_1_loop.thisTrialN, instructions_1_loop.thisN, instructions_1_loop.thisIndex, instructions_2_repeat.thisRepN, instructions_2_repeat.thisTrialN, instructions_2_repeat.thisN, instructions_2_repeat.thisIndex, stim, prompt, answer, trials_2.thisRepN, trials_2.thisTrialN, trials_2.thisN, trials_2.thisIndex, stim, prompt, answer, trials.thisRepN, trials.thisTrialN, trials.thisN, trials.thisIndex, participant, date, expName, frameRate
space, 1.0500000000000007, space, 3.476000000000001, , , , , , , , , , , , , , Slide15.JPG, 0, 0, 0, 0, , , , , , , , , , , , , , , , , , , 88122088, Fri Aug 18 2017 12:24:38 GMT-0400 (Eastern Daylight Time), Road_Intersection, 60
, , space, 9.861, , , , , , , , , , , , , , Slide16.JPG, 0, 1, 1, 1, , , , , , , , , , , , , , , , , , , 88122088, Fri Aug 18 2017 12:24:38 GMT-0400 (Eastern Daylight Time), Road_Intersection, 60
, , space, 2.847999999999999, , , , , , , , , , , , , , Slide17.JPG, 0, 2, 2, 2, , , , , , , , , , , , , , , , , , , 88122088, Fri Aug 18 2017 12:24:38 GMT-0400 (Eastern Daylight Time), Road_Intersection, 60
, , space, 2.8640000000000043, , , , , , , , , , , , , , Slide18.JPG, 0, 3, 3, 3, , , , , , , , , , , , , , , , , , , 88122088, Fri Aug 18 2017 12:24:38 GMT-0400 (Eastern Daylight Time), Road_Intersection, 60
, , space, 1.865000000000002, , , , , , , , , , , , , , Slide19.JPG, 0, 4, 4, 4, , , , , , , , , , , , , , , , , , , 88122088, Fri Aug 18 2017 12:24:38 GMT-0400 (Eastern Daylight Time), Road_Intersection, 60
, , space, 6.168999999999997, , , , , , , , , , , , , , Slide20.JPG, 0, 5, 5, 5, , , , , , , , , , , , , , , , , , , 88122088, Fri Aug 18 2017 12:24:38 GMT-0400 (Eastern Daylight Time), Road_Intersection, 60
, , space, 2.269999999999996, , , , , , , , , , , , , , Slide21.JPG, 0, 6, 6, 6, , , , , , , , , , , , , , , , , , , 88122088, Fri Aug 18 2017 12:24:38 GMT-0400 (Eastern Daylight Time), Road_Intersection, 60
, , space, 4.254000000000005, , , , , , , , , , , , , , Slide22.JPG, 0, 7, 7, 7, , , , , , , , , , , , , , , , , , , 88122088, Fri Aug 18 2017 12:24:38 GMT-0400 (Eastern Daylight Time), Road_Intersection, 60
, , space, 1.8489999999999966, , , , , , , , , , , , , , Slide23.JPG, 0, 8, 8, 8, , , , , , , , , , , , , , , , , , , 88122088, Fri Aug 18 2017 12:24:38 GMT-0400 (Eastern Daylight Time), Road_Intersection, 60
, , space, 0.9320000000000022, , , , , , , , , , , , , , Slide24.JPG, 0, 9, 9, 9, , , , , , , , , , , , , , , , , , , 88122088, Fri Aug 18 2017 12:24:38 GMT-0400 (Eastern Daylight Time), Road_Intersection, 60
, , space, 1.375, , , , , , , , , , , , , , Slide25.JPG, 0, 10, 10, 10, , , , , , , , , , , , , , , , , , , 88122088, Fri Aug 18 2017 12:24:38 GMT-0400 (Eastern Daylight Time), Road_Intersection, 60
, , space, 1.1340000000000003, , , , , , , , , , , , , , Slide26.JPG, 0, 11, 11, 11, , , , , , , , , , , , , , , , , , , 88122088, Fri Aug 18 2017 12:24:38 GMT-0400 (Eastern Daylight Time), Road_Intersection, 60
, , space, 1.5750000000000028, , , , , , , , , , , , , , Slide27.JPG, 0, 12, 12, 12, , , , , , , , , , , , , , , , , , , 88122088, Fri Aug 18 2017 12:24:38 GMT-0400 (Eastern Daylight Time), Road_Intersection, 60
, , space, 1.8469999999999942, , , , , , , , , , , , , , Slide28.JPG, 0, 13, 13, 13, , , , , , , , , , , , , , , , , , , 88122088, Fri Aug 18 2017 12:24:38 GMT-0400 (Eastern Daylight Time), Road_Intersection, 60
, , , , 0, 3.798000000000002, space, 5.050000000000011, left, 2.8629999999999995, , , , , , , , , , , , , , , , , navFarLeft.jpg, Go right., left, 0, 0, 0, 0, navFarLeft.jpg, Go right., left, , , , , 88122088, Fri Aug 18 2017 12:24:38 GMT-0400 (Eastern Daylight Time), Road_Intersection, 60
, , , , , , , , right, 1.2349999999999994, , , , , , , , , , , , , , , , , navNearLeft.jpg, Go away., right, 0, 1, 1, 1, navNearLeft.jpg, Go away., right, , , , , 88122088, Fri Aug 18 2017 12:24:38 GMT-0400 (Eastern Daylight Time), Road_Intersection, 60
, , , , , , , , right, 2.7919999999999874, , , , , , , , , , , , , , , , , navFarRight.jpg, Go left., right, 0, 2, 2, 2, navFarRight.jpg, Go left., right, , , , , 88122088, Fri Aug 18 2017 12:24:38 GMT-0400 (Eastern Daylight Time), Road_Intersection, 60
, , , , , , , , right, 1.0330000000000013, , , , , , , , , , , , , , , , , navNearRight.jpg, Go home. , right, 0, 3, 3, 3, navNearRight.jpg, Go home. , right, , , , , 88122088, Fri Aug 18 2017 12:24:38 GMT-0400 (Eastern Daylight Time), Road_Intersection, 60
, , , , , , , , left, 0.7279999999999944, , , , , , , , , , , , , , , , , navNearLeft.jpg, Go left., left, 0, 4, 4, 4, navNearLeft.jpg, Go left., left, , , , , 88122088, Fri Aug 18 2017 12:24:38 GMT-0400 (Eastern Daylight Time), Road_Intersection, 60
, , , , , , , , right, 0.9310000000000116, , , , , , , , , , , , , , , , , navNearRight.jpg, Go home., right, 0, 5, 5, 5, navNearRight.jpg, Go home., right, , , , , 88122088, Fri Aug 18 2017 12:24:38 GMT-0400 (Eastern Daylight Time), Road_Intersection, 60
, , , , , , , , right, 0.9500000000000028, , , , , , , , , , , , , , , , , navNearLeft.jpg, Go away., right, 0, 6, 6, 6, navNearLeft.jpg, Go away., right, , , , , 88122088, Fri Aug 18 2017 12:24:38 GMT-0400 (Eastern Daylight Time), Road_Intersection, 60
, , , , , , , , left, 1.6770000000000067, , , , , , , , , , , , , , , , , navFarLeft.jpg, Go right., left, 0, 7, 7, 7, navFarLeft.jpg, Go right., left, , , , , 88122088, Fri Aug 18 2017 12:24:38 GMT-0400 (Eastern Daylight Time), Road_Intersection, 60
, , , , , , , , , , space, 0.5759999999999934, right, 1, 0.9830000000000041, , , , , , , , , , , , navNearRight.jpg, Go right. , right, , , , , navNearRight.jpg, Go right. , right, 0, 0, 0, 15, 88122088, Fri Aug 18 2017 12:24:38 GMT-0400 (Eastern Daylight Time), Road_Intersection, 60
, , , , , , , , , , , , right, 1, 1.3730000000000189, , , , , , , , , , , , navFarLeft.jpg, Go left. , right, , , , , navFarLeft.jpg, Go left. , right, 0, 1, 1, 8, 88122088, Fri Aug 18 2017 12:24:38 GMT-0400 (Eastern Daylight Time), Road_Intersection, 60
, , , , , , , , , , , , left, 1, 0.7469999999999857, , , , , , , , , , , , navNearLeft.jpg, Go home., left, , , , , navNearLeft.jpg, Go home., left, 0, 2, 2, 2, 88122088, Fri Aug 18 2017 12:24:38 GMT-0400 (Eastern Daylight Time), Road_Intersection, 60
, , , , , , , , , , , , right, 1, 0.8610000000000184, , , , , , , , , , , , navNearLeft.jpg, Go away. , right, , , , , navNearLeft.jpg, Go away. , right, 0, 3, 3, 6, 88122088, Fri Aug 18 2017 12:24:38 GMT-0400 (Eastern Daylight Time), Road_Intersection, 60
, , , , , , , , , , , , right, 1, 1.0679999999999836, , , , , , , , , , , , navNearLeft.jpg, Go right. , right, , , , , navNearLeft.jpg, Go right. , right, 0, 4, 4, 14, 88122088, Fri Aug 18 2017 12:24:38 GMT-0400 (Eastern Daylight Time), Road_Intersection, 60
, , , , , , , , , , , , left, 1, 0.6750000000000114, , , , , , , , , , , , navNearRight.jpg, Go left. , left, , , , , navNearRight.jpg, Go left. , left, 0, 5, 5, 11, 88122088, Fri Aug 18 2017 12:24:38 GMT-0400 (Eastern Daylight Time), Road_Intersection, 60
, , , , , , , , , , , , left, 1, 1.8640000000000043, , , , , , , , , , , , navFarLeft.jpg, Go right. , left, , , , , navFarLeft.jpg, Go right. , left, 0, 6, 6, 12, 88122088, Fri Aug 18 2017 12:24:38 GMT-0400 (Eastern Daylight Time), Road_Intersection, 60
, , , , , , , , , , , , right, 1, 0.9499999999999886, , , , , , , , , , , , navFarLeft.jpg, Go away. , right, , , , , navFarLeft.jpg, Go away. , right, 0, 7, 7, 4, 88122088, Fri Aug 18 2017 12:24:38 GMT-0400 (Eastern Daylight Time), Road_Intersection, 60
, , , , , , , , , , , , left, 1, 0.7779999999999916, , , , , , , , , , , , navNearRight.jpg, Go away. , left, , , , , navNearRight.jpg, Go away. , left, 0, 8, 8, 7, 88122088, Fri Aug 18 2017 12:24:38 GMT-0400 (Eastern Daylight Time), Road_Intersection, 60
, , , , , , , , , , , , left, 1, 1.983000000000004, , , , , , , , , , , , navFarRight.jpg, Go right. , left, , , , , navFarRight.jpg, Go right. , left, 0, 9, 9, 13, 88122088, Fri Aug 18 2017 12:24:38 GMT-0400 (Eastern Daylight Time), Road_Intersection, 60
, , , , , , , , , , , , right, 1, 1.1260000000000048, , , , , , , , , , , , navFarRight.jpg, Go home., right, , , , , navFarRight.jpg, Go home., right, 0, 10, 10, 1, 88122088, Fri Aug 18 2017 12:24:38 GMT-0400 (Eastern Daylight Time), Road_Intersection, 60
, , , , , , , , , , , , left, 1, 1.1189999999999998, , , , , , , , , , , , navFarRight.jpg, Go away. , left, , , , , navFarRight.jpg, Go away. , left, 0, 11, 11, 5, 88122088, Fri Aug 18 2017 12:24:38 GMT-0400 (Eastern Daylight Time), Road_Intersection, 60
, , , , , , , , , , , , left, 1, 1.3050000000000068, , , , , , , , , , , , navFarLeft.jpg, Go home., left, , , , , navFarLeft.jpg, Go home., left, 0, 12, 12, 0, 88122088, Fri Aug 18 2017 12:24:38 GMT-0400 (Eastern Daylight Time), Road_Intersection, 60
, , , , , , , , , , , , right, 1, 2.1359999999999957, , , , , , , , , , , , navFarRight.jpg, Go left. , right, , , , , navFarRight.jpg, Go left. , right, 0, 13, 13, 9, 88122088, Fri Aug 18 2017 12:24:38 GMT-0400 (Eastern Daylight Time), Road_Intersection, 60
, , , , , , , , , , , , left, 1, 1.288000000000011, , , , , , , , , , , , navNearLeft.jpg, Go left. , left, , , , , navNearLeft.jpg, Go left. , left, 0, 14, 14, 10, 88122088, Fri Aug 18 2017 12:24:38 GMT-0400 (Eastern Daylight Time), Road_Intersection, 60
, , , , , , , , , , , , right, 1, 0.796999999999997, , , , , , , , , , , , navNearRight.jpg, Go home., right, , , , , navNearRight.jpg, Go home., right, 0, 15, 15, 3, 88122088, Fri Aug 18 2017 12:24:38 GMT-0400 (Eastern Daylight Time), Road_Intersection, 60
, , , , , , , , , , , , left, 1, 0.9000000000000057, , , , , , , , , , , , navNearLeft.jpg, Go home., left, , , , , navNearLeft.jpg, Go home., left, 1, 0, 16, 2, 88122088, Fri Aug 18 2017 12:24:38 GMT-0400 (Eastern Daylight Time), Road_Intersection, 60
, , , , , , , , , , , , right, 1, 0.6760000000000161, , , , , , , , , , , , navNearLeft.jpg, Go right. , right, , , , , navNearLeft.jpg, Go right. , right, 1, 1, 17, 14, 88122088, Fri Aug 18 2017 12:24:38 GMT-0400 (Eastern Daylight Time), Road_Intersection, 60
, , , , , , , , , , , , right, 1, 1.5109999999999957, , , , , , , , , , , , navFarRight.jpg, Go left. , right, , , , , navFarRight.jpg, Go left. , right, 1, 2, 18, 9, 88122088, Fri Aug 18 2017 12:24:38 GMT-0400 (Eastern Daylight Time), Road_Intersection, 60
, , , , , , , , , , , , right, 0, 1.5589999999999975, , , , , , , , , , , , navFarLeft.jpg, Go right. , left, , , , , navFarLeft.jpg, Go right. , left, 1, 3, 19, 12, 88122088, Fri Aug 18 2017 12:24:38 GMT-0400 (Eastern Daylight Time), Road_Intersection, 60
, , , , , , , , , , , , left, 1, 1.4230000000000018, , , , , , , , , , , , navFarLeft.jpg, Go home., left, , , , , navFarLeft.jpg, Go home., left, 1, 4, 20, 0, 88122088, Fri Aug 18 2017 12:24:38 GMT-0400 (Eastern Daylight Time), Road_Intersection, 60
, , , , , , , , , , , , right, 1, 0.950000000000017, , , , , , , , , , , , navNearLeft.jpg, Go away. , right, , , , , navNearLeft.jpg, Go away. , right, 1, 5, 21, 6, 88122088, Fri Aug 18 2017 12:24:38 GMT-0400 (Eastern Daylight Time), Road_Intersection, 60
, , , , , , , , , , , , left, 1, 1.0849999999999795, , , , , , , , , , , , navFarRight.jpg, Go away. , left, , , , , navFarRight.jpg, Go away. , left, 1, 6, 22, 5, 88122088, Fri Aug 18 2017 12:24:38 GMT-0400 (Eastern Daylight Time), Road_Intersection, 60
, , , , , , , , , , , , right, 1, 0.7980000000000018, , , , , , , , , , , , navFarLeft.jpg, Go left. , right, , , , , navFarLeft.jpg, Go left. , right, 1, 7, 23, 8, 88122088, Fri Aug 18 2017 12:24:38 GMT-0400 (Eastern Daylight Time), Road_Intersection, 60
, , , , , , , , , , , , left, 1, 0.6420000000000243, , , , , , , , , , , , navNearRight.jpg, Go left. , left, , , , , navNearRight.jpg, Go left. , left, 1, 8, 24, 11, 88122088, Fri Aug 18 2017 12:24:38 GMT-0400 (Eastern Daylight Time), Road_Intersection, 60
, , , , , , , , , , , , right, 1, 0.8130000000000166, , , , , , , , , , , , navNearRight.jpg, Go right. , right, , , , , navNearRight.jpg, Go right. , right, 1, 9, 25, 15, 88122088, Fri Aug 18 2017 12:24:38 GMT-0400 (Eastern Daylight Time), Road_Intersection, 60
, , , , , , , , , , , , left, 1, 2.305000000000007, , , , , , , , , , , , navFarRight.jpg, Go right. , left, , , , , navFarRight.jpg, Go right. , left, 1, 10, 26, 13, 88122088, Fri Aug 18 2017 12:24:38 GMT-0400 (Eastern Daylight Time), Road_Intersection, 60
, , , , , , , , , , , , right, 1, 1.134999999999991, , , , , , , , , , , , navFarRight.jpg, Go home., right, , , , , navFarRight.jpg, Go home., right, 1, 11, 27, 1, 88122088, Fri Aug 18 2017 12:24:38 GMT-0400 (Eastern Daylight Time), Road_Intersection, 60
, , , , , , , , , , , , left, 0, 1.2379999999999995, , , , , , , , , , , , navFarLeft.jpg, Go away. , right, , , , , navFarLeft.jpg, Go away. , right, 1, 12, 28, 4, 88122088, Fri Aug 18 2017 12:24:38 GMT-0400 (Eastern Daylight Time), Road_Intersection, 60
, , , , , , , , , , , , left, 1, 0.8479999999999848, , , , , , , , , , , , navNearLeft.jpg, Go left. , left, , , , , navNearLeft.jpg, Go left. , left, 1, 13, 29, 10, 88122088, Fri Aug 18 2017 12:24:38 GMT-0400 (Eastern Daylight Time), Road_Intersection, 60
, , , , , , , , , , , , right, 1, 0.8969999999999914, , , , , , , , , , , , navNearRight.jpg, Go home., right, , , , , navNearRight.jpg, Go home., right, 1, 14, 30, 3, 88122088, Fri Aug 18 2017 12:24:38 GMT-0400 (Eastern Daylight Time), Road_Intersection, 60
, , , , , , , , , , , , left, 1, 0.8810000000000002, , , , , , , , , , , , navNearRight.jpg, Go away. , left, , , , , navNearRight.jpg, Go away. , left, 1, 15, 31, 7, 88122088, Fri Aug 18 2017 12:24:38 GMT-0400 (Eastern Daylight Time), Road_Intersection, 60
, , , , , , , , , , , , right, 1, 0.9659999999999798, , , , , , , , , , , , navNearLeft.jpg, Go right. , right, , , , , navNearLeft.jpg, Go right. , right, 2, 0, 32, 14, 88122088, Fri Aug 18 2017 12:24:38 GMT-0400 (Eastern Daylight Time), Road_Intersection, 60
, , , , , , , , , , , , right, 1, 1.7139999999999986, , , , , , , , , , , , navFarLeft.jpg, Go left. , right, , , , , navFarLeft.jpg, Go left. , right, 2, 1, 33, 8, 88122088, Fri Aug 18 2017 12:24:38 GMT-0400 (Eastern Daylight Time), Road_Intersection, 60
, , , , , , , , , , , , left, 1, 1.2870000000000061, , , , , , , , , , , , navFarLeft.jpg, Go right. , left, , , , , navFarLeft.jpg, Go right. , left, 2, 2, 34, 12, 88122088, Fri Aug 18 2017 12:24:38 GMT-0400 (Eastern Daylight Time), Road_Intersection, 60
, , , , , , , , , , , , left, 1, 1.5079999999999814, , , , , , , , , , , , navNearLeft.jpg, Go left. , left, , , , , navNearLeft.jpg, Go left. , left, 2, 3, 35, 10, 88122088, Fri Aug 18 2017 12:24:38 GMT-0400 (Eastern Daylight Time), Road_Intersection, 60
, , , , , , , , , , , , left, 1, 0.914999999999992, , , , , , , , , , , , navFarLeft.jpg, Go home., left, , , , , navFarLeft.jpg, Go home., left, 2, 4, 36, 0, 88122088, Fri Aug 18 2017 12:24:38 GMT-0400 (Eastern Daylight Time), Road_Intersection, 60
, , , , , , , , , , , , left, 1, 1.2200000000000273, , , , , , , , , , , , navFarRight.jpg, Go away. , left, , , , , navFarRight.jpg, Go away. , left, 2, 5, 37, 5, 88122088, Fri Aug 18 2017 12:24:38 GMT-0400 (Eastern Daylight Time), Road_Intersection, 60
, , , , , , , , , , , , right, 1, 0.8990000000000009, , , , , , , , , , , , navFarRight.jpg, Go home., right, , , , , navFarRight.jpg, Go home., right, 2, 6, 38, 1, 88122088, Fri Aug 18 2017 12:24:38 GMT-0400 (Eastern Daylight Time), Road_Intersection, 60
, , , , , , , , , , , , right, 1, 0.7950000000000159, , , , , , , , , , , , navNearRight.jpg, Go home., right, , , , , navNearRight.jpg, Go home., right, 2, 7, 39, 3, 88122088, Fri Aug 18 2017 12:24:38 GMT-0400 (Eastern Daylight Time), Road_Intersection, 60
, , , , , , , , , , , , right, 1, 1.0679999999999836, , , , , , , , , , , , navNearLeft.jpg, Go away. , right, , , , , navNearLeft.jpg, Go away. , right, 2, 8, 40, 6, 88122088, Fri Aug 18 2017 12:24:38 GMT-0400 (Eastern Daylight Time), Road_Intersection, 60
, , , , , , , , , , , , left, 0, 1.4209999999999923, , , , , , , , , , , , navFarRight.jpg, Go left. , right, , , , , navFarRight.jpg, Go left. , right, 2, 9, 41, 9, 88122088, Fri Aug 18 2017 12:24:38 GMT-0400 (Eastern Daylight Time), Road_Intersection, 60
, , , , , , , , , , , , right, 1, 1.204999999999984, , , , , , , , , , , , navNearRight.jpg, Go right. , right, , , , , navNearRight.jpg, Go right. , right, 2, 10, 42, 15, 88122088, Fri Aug 18 2017 12:24:38 GMT-0400 (Eastern Daylight Time), Road_Intersection, 60
, , , , , , , , , , , , left, 1, 1.0149999999999864, , , , , , , , , , , , navNearRight.jpg, Go away. , left, , , , , navNearRight.jpg, Go away. , left, 2, 11, 43, 7, 88122088, Fri Aug 18 2017 12:24:38 GMT-0400 (Eastern Daylight Time), Road_Intersection, 60
, , , , , , , , , , , , left, 1, 1.15300000000002, , , , , , , , , , , , navNearRight.jpg, Go left. , left, , , , , navNearRight.jpg, Go left. , left, 2, 12, 44, 11, 88122088, Fri Aug 18 2017 12:24:38 GMT-0400 (Eastern Daylight Time), Road_Intersection, 60
, , , , , , , , , , , , left, 1, 0.728999999999985, , , , , , , , , , , , navNearLeft.jpg, Go home., left, , , , , navNearLeft.jpg, Go home., left, 2, 13, 45, 2, 88122088, Fri Aug 18 2017 12:24:38 GMT-0400 (Eastern Daylight Time), Road_Intersection, 60
, , , , , , , , , , , , left, 1, 1.7139999999999986, , , , , , , , , , , , navFarRight.jpg, Go right. , left, , , , , navFarRight.jpg, Go right. , left, 2, 14, 46, 13, 88122088, Fri Aug 18 2017 12:24:38 GMT-0400 (Eastern Daylight Time), Road_Intersection, 60
, , , , , , , , , , , , right, 1, 1.507000000000005, , , , , , , , , , , , navFarLeft.jpg, Go away. , right, , , , , navFarLeft.jpg, Go away. , right, 2, 15, 47, 4, 88122088, Fri Aug 18 2017 12:24:38 GMT-0400 (Eastern Daylight Time), Road_Intersection, 60
, , , , , , , , , , , , right, 1, 0.7819999999999823, , , , , , , , , , , , navNearRight.jpg, Go home., right, , , , , navNearRight.jpg, Go home., right, 3, 0, 48, 3, 88122088, Fri Aug 18 2017 12:24:38 GMT-0400 (Eastern Daylight Time), Road_Intersection, 60
, , , , , , , , , , , , left, 1, 3.4569999999999936, , , , , , , , , , , , navFarLeft.jpg, Go right. , left, , , , , navFarLeft.jpg, Go right. , left, 3, 1, 49, 12, 88122088, Fri Aug 18 2017 12:24:38 GMT-0400 (Eastern Daylight Time), Road_Intersection, 60
, , , , , , , , , , , , left, 1, 0.8810000000000286, , , , , , , , , , , , navNearLeft.jpg, Go home., left, , , , , navNearLeft.jpg, Go home., left, 3, 2, 50, 2, 88122088, Fri Aug 18 2017 12:24:38 GMT-0400 (Eastern Daylight Time), Road_Intersection, 60
, , , , , , , , , , , , left, 1, 1.2230000000000132, , , , , , , , , , , , navFarRight.jpg, Go away. , left, , , , , navFarRight.jpg, Go away. , left, 3, 3, 51, 5, 88122088, Fri Aug 18 2017 12:24:38 GMT-0400 (Eastern Daylight Time), Road_Intersection, 60
, , , , , , , , , , , , right, 1, 1.1689999999999827, , , , , , , , , , , , navFarLeft.jpg, Go left. , right, , , , , navFarLeft.jpg, Go left. , right, 3, 4, 52, 8, 88122088, Fri Aug 18 2017 12:24:38 GMT-0400 (Eastern Daylight Time), Road_Intersection, 60
, , , , , , , , , , , , left, 1, 0.7269999999999754, , , , , , , , , , , , navNearRight.jpg, Go away. , left, , , , , navNearRight.jpg, Go away. , left, 3, 5, 53, 7, 88122088, Fri Aug 18 2017 12:24:38 GMT-0400 (Eastern Daylight Time), Road_Intersection, 60
, , , , , , , , , , , , right, 1, 1.016999999999996, , , , , , , , , , , , navFarLeft.jpg, Go away. , right, , , , , navFarLeft.jpg, Go away. , right, 3, 6, 54, 4, 88122088, Fri Aug 18 2017 12:24:38 GMT-0400 (Eastern Daylight Time), Road_Intersection, 60
, , , , , , , , , , , , right, 1, 0.8639999999999759, , , , , , , , , , , , navFarRight.jpg, Go home., right, , , , , navFarRight.jpg, Go home., right, 3, 7, 55, 1, 88122088, Fri Aug 18 2017 12:24:38 GMT-0400 (Eastern Daylight Time), Road_Intersection, 60
, , , , , , , , , , , , left, 1, 1.6270000000000095, , , , , , , , , , , , navNearLeft.jpg, Go left. , left, , , , , navNearLeft.jpg, Go left. , left, 3, 8, 56, 10, 88122088, Fri Aug 18 2017 12:24:38 GMT-0400 (Eastern Daylight Time), Road_Intersection, 60
, , , , , , , , , , , , right, 1, 0.7959999999999923, , , , , , , , , , , , navNearLeft.jpg, Go away. , right, , , , , navNearLeft.jpg, Go away. , right, 3, 9, 57, 6, 88122088, Fri Aug 18 2017 12:24:38 GMT-0400 (Eastern Daylight Time), Road_Intersection, 60
, , , , , , , , , , , , right, 1, 0.8999999999999773, , , , , , , , , , , , navNearRight.jpg, Go right. , right, , , , , navNearRight.jpg, Go right. , right, 3, 10, 58, 15, 88122088, Fri Aug 18 2017 12:24:38 GMT-0400 (Eastern Daylight Time), Road_Intersection, 60
, , , , , , , , , , , , left, 1, 1.2199999999999704, , , , , , , , , , , , navFarLeft.jpg, Go home., left, , , , , navFarLeft.jpg, Go home., left, 3, 11, 59, 0, 88122088, Fri Aug 18 2017 12:24:38 GMT-0400 (Eastern Daylight Time), Road_Intersection, 60
, , , , , , , , , , , , right, 1, 1.218999999999994, , , , , , , , , , , , navNearLeft.jpg, Go right. , right, , , , , navNearLeft.jpg, Go right. , right, 3, 12, 60, 14, 88122088, Fri Aug 18 2017 12:24:38 GMT-0400 (Eastern Daylight Time), Road_Intersection, 60
, , , , , , , , , , , , left, 0, 1.7620000000000005, , , , , , , , , , , , navFarRight.jpg, Go left. , right, , , , , navFarRight.jpg, Go left. , right, 3, 13, 61, 9, 88122088, Fri Aug 18 2017 12:24:38 GMT-0400 (Eastern Daylight Time), Road_Intersection, 60
, , , , , , , , , , , , left, 1, 1.9669999999999845, , , , , , , , , , , , navFarRight.jpg, Go right. , left, , , , , navFarRight.jpg, Go right. , left, 3, 14, 62, 13, 88122088, Fri Aug 18 2017 12:24:38 GMT-0400 (Eastern Daylight Time), Road_Intersection, 60
, , , , , , , , , , , , left, 1, 0.9660000000000082, , , , , , , , , , , , navNearRight.jpg, Go left. , left, , , , , navNearRight.jpg, Go left. , left, 3, 15, 63, 11, 88122088, Fri Aug 18 2017 12:24:38 GMT-0400 (Eastern Daylight Time), Road_Intersection, 60
