Continue.keys, Continue.rt, instructions_response.keys, instructions_response.rt, repeat_response.keys, repeat_response.rt, key_resp_5.keys, key_resp_5.rt, key_resp_2.keys, key_resp_2.rt, key_resp_4.keys, key_resp_4.rt, Trials_response.keys, Trials_response.corr, Trials_response.rt, Block_Continue.keys, Block_Continue.rt, Image, instructions_1_loop.thisRepN, instructions_1_loop.thisTrialN, instructions_1_loop.thisN, instructions_1_loop.thisIndex, instructions_2_repeat.thisRepN, instructions_2_repeat.thisTrialN, instructions_2_repeat.thisN, instructions_2_repeat.thisIndex, stim, prompt, answer, trials_2.thisRepN, trials_2.thisTrialN, trials_2.thisN, trials_2.thisIndex, stim, prompt, answer, trials.thisRepN, trials.thisTrialN, trials.thisN, trials.thisIndex, participant, date, expName, frameRate
space, 2, space, 8.481, , , , , , , , , , , , , , Slide15.JPG, 0, 0, 0, 0, , , , , , , , , , , , , , , , , , , 99990726, Fri Sep 08 2017 10:03:52 GMT-0400 (Eastern Daylight Time), Road_Intersection, 60
, , space, 8.733, , , , , , , , , , , , , , Slide16.JPG, 0, 1, 1, 1, , , , , , , , , , , , , , , , , , , 99990726, Fri Sep 08 2017 10:03:52 GMT-0400 (Eastern Daylight Time), Road_Intersection, 60
, , space, 2.266000000000002, , , , , , , , , , , , , , Slide17.JPG, 0, 2, 2, 2, , , , , , , , , , , , , , , , , , , 99990726, Fri Sep 08 2017 10:03:52 GMT-0400 (Eastern Daylight Time), Road_Intersection, 60
, , space, 1.6169999999999973, , , , , , , , , , , , , , Slide18.JPG, 0, 3, 3, 3, , , , , , , , , , , , , , , , , , , 99990726, Fri Sep 08 2017 10:03:52 GMT-0400 (Eastern Daylight Time), Road_Intersection, 60
, , space, 11.216000000000001, , , , , , , , , , , , , , Slide19.JPG, 0, 4, 4, 4, , , , , , , , , , , , , , , , , , , 99990726, Fri Sep 08 2017 10:03:52 GMT-0400 (Eastern Daylight Time), Road_Intersection, 60
, , space, 6.799999999999997, , , , , , , , , , , , , , Slide20.JPG, 0, 5, 5, 5, , , , , , , , , , , , , , , , , , , 99990726, Fri Sep 08 2017 10:03:52 GMT-0400 (Eastern Daylight Time), Road_Intersection, 60
, , space, 2.8619999999999948, , , , , , , , , , , , , , Slide21.JPG, 0, 6, 6, 6, , , , , , , , , , , , , , , , , , , 99990726, Fri Sep 08 2017 10:03:52 GMT-0400 (Eastern Daylight Time), Road_Intersection, 60
, , space, 7.798000000000002, , , , , , , , , , , , , , Slide22.JPG, 0, 7, 7, 7, , , , , , , , , , , , , , , , , , , 99990726, Fri Sep 08 2017 10:03:52 GMT-0400 (Eastern Daylight Time), Road_Intersection, 60
, , space, 29.096999999999994, , , , , , , , , , , , , , Slide23.JPG, 0, 8, 8, 8, , , , , , , , , , , , , , , , , , , 99990726, Fri Sep 08 2017 10:03:52 GMT-0400 (Eastern Daylight Time), Road_Intersection, 60
, , space, 2.3149999999999977, , , , , , , , , , , , , , Slide24.JPG, 0, 9, 9, 9, , , , , , , , , , , , , , , , , , , 99990726, Fri Sep 08 2017 10:03:52 GMT-0400 (Eastern Daylight Time), Road_Intersection, 60
, , space, 3.6170000000000044, , , , , , , , , , , , , , Slide25.JPG, 0, 10, 10, 10, , , , , , , , , , , , , , , , , , , 99990726, Fri Sep 08 2017 10:03:52 GMT-0400 (Eastern Daylight Time), Road_Intersection, 60
, , space, 2.9000000000000057, , , , , , , , , , , , , , Slide26.JPG, 0, 11, 11, 11, , , , , , , , , , , , , , , , , , , 99990726, Fri Sep 08 2017 10:03:52 GMT-0400 (Eastern Daylight Time), Road_Intersection, 60
, , space, 6.783000000000001, , , , , , , , , , , , , , Slide27.JPG, 0, 12, 12, 12, , , , , , , , , , , , , , , , , , , 99990726, Fri Sep 08 2017 10:03:52 GMT-0400 (Eastern Daylight Time), Road_Intersection, 60
, , space, 3, , , , , , , , , , , , , , Slide28.JPG, 0, 13, 13, 13, , , , , , , , , , , , , , , , , , , 99990726, Fri Sep 08 2017 10:03:52 GMT-0400 (Eastern Daylight Time), Road_Intersection, 60
, , , , 0, 3.9329999999999927, space, 2.1170000000000044, left, 4.183000000000021, , , , , , , , , , , , , , , , , navFarLeft.jpg, Go right., left, 0, 0, 0, 0, navFarLeft.jpg, Go right., left, , , , , 99990726, Fri Sep 08 2017 10:03:52 GMT-0400 (Eastern Daylight Time), Road_Intersection, 60
, , , , , , , , right, 1.9170000000000016, , , , , , , , , , , , , , , , , navNearLeft.jpg, Go away., right, 0, 1, 1, 1, navNearLeft.jpg, Go away., right, , , , , 99990726, Fri Sep 08 2017 10:03:52 GMT-0400 (Eastern Daylight Time), Road_Intersection, 60
, , , , , , , , right, 2.179000000000002, , , , , , , , , , , , , , , , , navFarRight.jpg, Go left., right, 0, 2, 2, 2, navFarRight.jpg, Go left., right, , , , , 99990726, Fri Sep 08 2017 10:03:52 GMT-0400 (Eastern Daylight Time), Road_Intersection, 60
, , , , , , , , right, 1.1500000000000057, , , , , , , , , , , , , , , , , navNearRight.jpg, Go home. , right, 0, 3, 3, 3, navNearRight.jpg, Go home. , right, , , , , 99990726, Fri Sep 08 2017 10:03:52 GMT-0400 (Eastern Daylight Time), Road_Intersection, 60
, , , , , , , , left, 2.217000000000013, , , , , , , , , , , , , , , , , navNearLeft.jpg, Go left., left, 0, 4, 4, 4, navNearLeft.jpg, Go left., left, , , , , 99990726, Fri Sep 08 2017 10:03:52 GMT-0400 (Eastern Daylight Time), Road_Intersection, 60
, , , , , , , , right, 0.717000000000013, , , , , , , , , , , , , , , , , navNearRight.jpg, Go home., right, 0, 5, 5, 5, navNearRight.jpg, Go home., right, , , , , 99990726, Fri Sep 08 2017 10:03:52 GMT-0400 (Eastern Daylight Time), Road_Intersection, 60
, , , , , , , , right, 1.1659999999999968, , , , , , , , , , , , , , , , , navNearLeft.jpg, Go away., right, 0, 6, 6, 6, navNearLeft.jpg, Go away., right, , , , , 99990726, Fri Sep 08 2017 10:03:52 GMT-0400 (Eastern Daylight Time), Road_Intersection, 60
, , , , , , , , left, 1.483000000000004, , , , , , , , , , , , , , , , , navFarLeft.jpg, Go right., left, 0, 7, 7, 7, navFarLeft.jpg, Go right., left, , , , , 99990726, Fri Sep 08 2017 10:03:52 GMT-0400 (Eastern Daylight Time), Road_Intersection, 60
, , , , , , , , , , space, 10.581999999999994, left, 1, 1.5999999999999943, , , , , , , , , , , , navFarLeft.jpg, Go right. , left, , , , , navFarLeft.jpg, Go right. , left, 0, 0, 0, 12, 99990726, Fri Sep 08 2017 10:03:52 GMT-0400 (Eastern Daylight Time), Road_Intersection, 60
, , , , , , , , , , , , right, 1, 0.703000000000003, , , , , , , , , , , , navNearRight.jpg, Go right. , right, , , , , navNearRight.jpg, Go right. , right, 0, 1, 1, 15, 99990726, Fri Sep 08 2017 10:03:52 GMT-0400 (Eastern Daylight Time), Road_Intersection, 60
, , , , , , , , , , , , right, 1, 1.5979999999999848, , , , , , , , , , , , navFarRight.jpg, Go home., right, , , , , navFarRight.jpg, Go home., right, 0, 2, 2, 1, 99990726, Fri Sep 08 2017 10:03:52 GMT-0400 (Eastern Daylight Time), Road_Intersection, 60
, , , , , , , , , , , , left, 1, 1.4320000000000164, , , , , , , , , , , , navNearLeft.jpg, Go left. , left, , , , , navNearLeft.jpg, Go left. , left, 0, 3, 3, 10, 99990726, Fri Sep 08 2017 10:03:52 GMT-0400 (Eastern Daylight Time), Road_Intersection, 60
, , , , , , , , , , , , right, 1, 0.8830000000000098, , , , , , , , , , , , navNearRight.jpg, Go home., right, , , , , navNearRight.jpg, Go home., right, 0, 4, 4, 3, 99990726, Fri Sep 08 2017 10:03:52 GMT-0400 (Eastern Daylight Time), Road_Intersection, 60
, , , , , , , , , , , , left, 1, 0.8329999999999984, , , , , , , , , , , , navNearRight.jpg, Go away. , left, , , , , navNearRight.jpg, Go away. , left, 0, 5, 5, 7, 99990726, Fri Sep 08 2017 10:03:52 GMT-0400 (Eastern Daylight Time), Road_Intersection, 60
, , , , , , , , , , , , left, 1, 0.9659999999999798, , , , , , , , , , , , navFarLeft.jpg, Go home., left, , , , , navFarLeft.jpg, Go home., left, 0, 6, 6, 0, 99990726, Fri Sep 08 2017 10:03:52 GMT-0400 (Eastern Daylight Time), Road_Intersection, 60
, , , , , , , , , , , , right, 1, 1, , , , , , , , , , , , navNearLeft.jpg, Go right. , right, , , , , navNearLeft.jpg, Go right. , right, 0, 7, 7, 14, 99990726, Fri Sep 08 2017 10:03:52 GMT-0400 (Eastern Daylight Time), Road_Intersection, 60
, , , , , , , , , , , , right, 1, 1.1659999999999968, , , , , , , , , , , , navFarLeft.jpg, Go away. , right, , , , , navFarLeft.jpg, Go away. , right, 0, 8, 8, 4, 99990726, Fri Sep 08 2017 10:03:52 GMT-0400 (Eastern Daylight Time), Road_Intersection, 60
, , , , , , , , , , , , left, 1, 3.8499999999999943, , , , , , , , , , , , navFarRight.jpg, Go right. , left, , , , , navFarRight.jpg, Go right. , left, 0, 9, 9, 13, 99990726, Fri Sep 08 2017 10:03:52 GMT-0400 (Eastern Daylight Time), Road_Intersection, 60
, , , , , , , , , , , , right, 1, 1.0020000000000095, , , , , , , , , , , , navNearLeft.jpg, Go away. , right, , , , , navNearLeft.jpg, Go away. , right, 0, 10, 10, 6, 99990726, Fri Sep 08 2017 10:03:52 GMT-0400 (Eastern Daylight Time), Road_Intersection, 60
, , , , , , , , , , , , right, 1, 1.9960000000000093, , , , , , , , , , , , navFarLeft.jpg, Go left. , right, , , , , navFarLeft.jpg, Go left. , right, 0, 11, 11, 8, 99990726, Fri Sep 08 2017 10:03:52 GMT-0400 (Eastern Daylight Time), Road_Intersection, 60
, , , , , , , , , , , , left, 1, 1.5809999999999889, , , , , , , , , , , , navNearLeft.jpg, Go home., left, , , , , navNearLeft.jpg, Go home., left, 0, 12, 12, 2, 99990726, Fri Sep 08 2017 10:03:52 GMT-0400 (Eastern Daylight Time), Road_Intersection, 60
, , , , , , , , , , , , left, 1, 1.2789999999999964, , , , , , , , , , , , navNearRight.jpg, Go left. , left, , , , , navNearRight.jpg, Go left. , left, 0, 13, 13, 11, 99990726, Fri Sep 08 2017 10:03:52 GMT-0400 (Eastern Daylight Time), Road_Intersection, 60
, , , , , , , , , , , , right, 1, 1.266999999999996, , , , , , , , , , , , navFarRight.jpg, Go left. , right, , , , , navFarRight.jpg, Go left. , right, 0, 14, 14, 9, 99990726, Fri Sep 08 2017 10:03:52 GMT-0400 (Eastern Daylight Time), Road_Intersection, 60
, , , , , , , , , , , , left, 1, 1.2680000000000007, , , , , , , , , , , , navFarRight.jpg, Go away. , left, , , , , navFarRight.jpg, Go away. , left, 0, 15, 15, 5, 99990726, Fri Sep 08 2017 10:03:52 GMT-0400 (Eastern Daylight Time), Road_Intersection, 60
, , , , , , , , , , , , left, 1, 0.9989999999999952, , , , , , , , , , , , navNearLeft.jpg, Go home., left, , , , , navNearLeft.jpg, Go home., left, 1, 0, 16, 2, 99990726, Fri Sep 08 2017 10:03:52 GMT-0400 (Eastern Daylight Time), Road_Intersection, 60
, , , , , , , , , , , , left, 1, 1.049999999999983, , , , , , , , , , , , navNearRight.jpg, Go left. , left, , , , , navNearRight.jpg, Go left. , left, 1, 1, 17, 11, 99990726, Fri Sep 08 2017 10:03:52 GMT-0400 (Eastern Daylight Time), Road_Intersection, 60
, , , , , , , , , , , , right, 1, 1.367999999999995, , , , , , , , , , , , navFarLeft.jpg, Go left. , right, , , , , navFarLeft.jpg, Go left. , right, 1, 2, 18, 8, 99990726, Fri Sep 08 2017 10:03:52 GMT-0400 (Eastern Daylight Time), Road_Intersection, 60
, , , , , , , , , , , , left, 1, 0.8660000000000423, , , , , , , , , , , , navNearRight.jpg, Go away. , left, , , , , navNearRight.jpg, Go away. , left, 1, 3, 19, 7, 99990726, Fri Sep 08 2017 10:03:52 GMT-0400 (Eastern Daylight Time), Road_Intersection, 60
, , , , , , , , , , , , left, 1, 1.0349999999999682, , , , , , , , , , , , navNearLeft.jpg, Go left. , left, , , , , navNearLeft.jpg, Go left. , left, 1, 4, 20, 10, 99990726, Fri Sep 08 2017 10:03:52 GMT-0400 (Eastern Daylight Time), Road_Intersection, 60
, , , , , , , , , , , , left, 1, 1.7340000000000373, , , , , , , , , , , , navFarRight.jpg, Go right. , left, , , , , navFarRight.jpg, Go right. , left, 1, 5, 21, 13, 99990726, Fri Sep 08 2017 10:03:52 GMT-0400 (Eastern Daylight Time), Road_Intersection, 60
, , , , , , , , , , , , right, 1, 1.7489999999999668, , , , , , , , , , , , navFarRight.jpg, Go left. , right, , , , , navFarRight.jpg, Go left. , right, 1, 6, 22, 9, 99990726, Fri Sep 08 2017 10:03:52 GMT-0400 (Eastern Daylight Time), Road_Intersection, 60
, , , , , , , , , , , , right, 1, 1.25, , , , , , , , , , , , navNearRight.jpg, Go home., right, , , , , navNearRight.jpg, Go home., right, 1, 7, 23, 3, 99990726, Fri Sep 08 2017 10:03:52 GMT-0400 (Eastern Daylight Time), Road_Intersection, 60
, , , , , , , , , , , , right, 1, 0.8660000000000423, , , , , , , , , , , , navNearLeft.jpg, Go right. , right, , , , , navNearLeft.jpg, Go right. , right, 1, 8, 24, 14, 99990726, Fri Sep 08 2017 10:03:52 GMT-0400 (Eastern Daylight Time), Road_Intersection, 60
, , , , , , , , , , , , right, 1, 1.507000000000005, , , , , , , , , , , , navFarRight.jpg, Go home., right, , , , , navFarRight.jpg, Go home., right, 1, 9, 25, 1, 99990726, Fri Sep 08 2017 10:03:52 GMT-0400 (Eastern Daylight Time), Road_Intersection, 60
, , , , , , , , , , , , right, 1, 0.8000000000000114, , , , , , , , , , , , navNearRight.jpg, Go right. , right, , , , , navNearRight.jpg, Go right. , right, 1, 10, 26, 15, 99990726, Fri Sep 08 2017 10:03:52 GMT-0400 (Eastern Daylight Time), Road_Intersection, 60
, , , , , , , , , , , , left, 1, 1.8969999999999914, , , , , , , , , , , , navFarLeft.jpg, Go right. , left, , , , , navFarLeft.jpg, Go right. , left, 1, 11, 27, 12, 99990726, Fri Sep 08 2017 10:03:52 GMT-0400 (Eastern Daylight Time), Road_Intersection, 60
, , , , , , , , , , , , right, 1, 1.5, , , , , , , , , , , , navNearLeft.jpg, Go away. , right, , , , , navNearLeft.jpg, Go away. , right, 1, 12, 28, 6, 99990726, Fri Sep 08 2017 10:03:52 GMT-0400 (Eastern Daylight Time), Road_Intersection, 60
, , , , , , , , , , , , left, 1, 2.3840000000000146, , , , , , , , , , , , navFarRight.jpg, Go away. , left, , , , , navFarRight.jpg, Go away. , left, 1, 13, 29, 5, 99990726, Fri Sep 08 2017 10:03:52 GMT-0400 (Eastern Daylight Time), Road_Intersection, 60
, , , , , , , , , , , , left, 1, 5.4459999999999695, , , , , , , , , , , , navFarLeft.jpg, Go home., left, , , , , navFarLeft.jpg, Go home., left, 1, 14, 30, 0, 99990726, Fri Sep 08 2017 10:03:52 GMT-0400 (Eastern Daylight Time), Road_Intersection, 60
, , , , , , , , , , , , right, 1, 1.1160000000000423, , , , , , , , , , , , navFarLeft.jpg, Go away. , right, , , , , navFarLeft.jpg, Go away. , right, 1, 15, 31, 4, 99990726, Fri Sep 08 2017 10:03:52 GMT-0400 (Eastern Daylight Time), Road_Intersection, 60
, , , , , , , , , , , , right, 1, 0.8849999999999909, , , , , , , , , , , , navNearLeft.jpg, Go right. , right, , , , , navNearLeft.jpg, Go right. , right, 2, 0, 32, 14, 99990726, Fri Sep 08 2017 10:03:52 GMT-0400 (Eastern Daylight Time), Road_Intersection, 60
, , , , , , , , , , , , right, 1, 1.032000000000039, , , , , , , , , , , , navNearRight.jpg, Go home., right, , , , , navNearRight.jpg, Go home., right, 2, 1, 33, 3, 99990726, Fri Sep 08 2017 10:03:52 GMT-0400 (Eastern Daylight Time), Road_Intersection, 60
, , , , , , , , , , , , left, 1, 1.08299999999997, , , , , , , , , , , , navNearLeft.jpg, Go home., left, , , , , navNearLeft.jpg, Go home., left, 2, 2, 34, 2, 99990726, Fri Sep 08 2017 10:03:52 GMT-0400 (Eastern Daylight Time), Road_Intersection, 60
, , , , , , , , , , , , left, 1, 2.117999999999995, , , , , , , , , , , , navFarLeft.jpg, Go right. , left, , , , , navFarLeft.jpg, Go right. , left, 2, 3, 35, 12, 99990726, Fri Sep 08 2017 10:03:52 GMT-0400 (Eastern Daylight Time), Road_Intersection, 60
, , , , , , , , , , , , right, 1, 1.3170000000000073, , , , , , , , , , , , navFarRight.jpg, Go left. , right, , , , , navFarRight.jpg, Go left. , right, 2, 4, 36, 9, 99990726, Fri Sep 08 2017 10:03:52 GMT-0400 (Eastern Daylight Time), Road_Intersection, 60
, , , , , , , , , , , , left, 1, 1.5830000000000268, , , , , , , , , , , , navFarRight.jpg, Go away. , left, , , , , navFarRight.jpg, Go away. , left, 2, 5, 37, 5, 99990726, Fri Sep 08 2017 10:03:52 GMT-0400 (Eastern Daylight Time), Road_Intersection, 60
, , , , , , , , , , , , left, 1, 1.0949999999999704, , , , , , , , , , , , navNearRight.jpg, Go left. , left, , , , , navNearRight.jpg, Go left. , left, 2, 6, 38, 11, 99990726, Fri Sep 08 2017 10:03:52 GMT-0400 (Eastern Daylight Time), Road_Intersection, 60
, , , , , , , , , , , , left, 1, 0.9169999999999732, , , , , , , , , , , , navNearRight.jpg, Go away. , left, , , , , navNearRight.jpg, Go away. , left, 2, 7, 39, 7, 99990726, Fri Sep 08 2017 10:03:52 GMT-0400 (Eastern Daylight Time), Road_Intersection, 60
, , , , , , , , , , , , right, 1, 1.2660000000000196, , , , , , , , , , , , navFarLeft.jpg, Go away. , right, , , , , navFarLeft.jpg, Go away. , right, 2, 8, 40, 4, 99990726, Fri Sep 08 2017 10:03:52 GMT-0400 (Eastern Daylight Time), Road_Intersection, 60
, , , , , , , , , , , , right, 1, 1.447999999999979, , , , , , , , , , , , navFarLeft.jpg, Go left. , right, , , , , navFarLeft.jpg, Go left. , right, 2, 9, 41, 8, 99990726, Fri Sep 08 2017 10:03:52 GMT-0400 (Eastern Daylight Time), Road_Intersection, 60
, , , , , , , , , , , , right, 1, 0.8509999999999991, , , , , , , , , , , , navNearLeft.jpg, Go away. , right, , , , , navNearLeft.jpg, Go away. , right, 2, 10, 42, 6, 99990726, Fri Sep 08 2017 10:03:52 GMT-0400 (Eastern Daylight Time), Road_Intersection, 60
, , , , , , , , , , , , right, 1, 1.25, , , , , , , , , , , , navFarRight.jpg, Go home., right, , , , , navFarRight.jpg, Go home., right, 2, 11, 43, 1, 99990726, Fri Sep 08 2017 10:03:52 GMT-0400 (Eastern Daylight Time), Road_Intersection, 60
, , , , , , , , , , , , left, 1, 1.4669999999999845, , , , , , , , , , , , navFarRight.jpg, Go right. , left, , , , , navFarRight.jpg, Go right. , left, 2, 12, 44, 13, 99990726, Fri Sep 08 2017 10:03:52 GMT-0400 (Eastern Daylight Time), Road_Intersection, 60
, , , , , , , , , , , , left, 1, 1.016999999999996, , , , , , , , , , , , navNearLeft.jpg, Go left. , left, , , , , navNearLeft.jpg, Go left. , left, 2, 13, 45, 10, 99990726, Fri Sep 08 2017 10:03:52 GMT-0400 (Eastern Daylight Time), Road_Intersection, 60
, , , , , , , , , , , , left, 1, 0.9329999999999927, , , , , , , , , , , , navFarLeft.jpg, Go home., left, , , , , navFarLeft.jpg, Go home., left, 2, 14, 46, 0, 99990726, Fri Sep 08 2017 10:03:52 GMT-0400 (Eastern Daylight Time), Road_Intersection, 60
, , , , , , , , , , , , right, 1, 0.7510000000000332, , , , , , , , , , , , navNearRight.jpg, Go right. , right, , , , , navNearRight.jpg, Go right. , right, 2, 15, 47, 15, 99990726, Fri Sep 08 2017 10:03:52 GMT-0400 (Eastern Daylight Time), Road_Intersection, 60
, , , , , , , , , , , , left, 1, 0.8170000000000073, , , , , , , , , , , , navNearRight.jpg, Go left. , left, , , , , navNearRight.jpg, Go left. , left, 3, 0, 48, 11, 99990726, Fri Sep 08 2017 10:03:52 GMT-0400 (Eastern Daylight Time), Road_Intersection, 60
, , , , , , , , , , , , left, 1, 1.1829999999999927, , , , , , , , , , , , navFarRight.jpg, Go away. , left, , , , , navFarRight.jpg, Go away. , left, 3, 1, 49, 5, 99990726, Fri Sep 08 2017 10:03:52 GMT-0400 (Eastern Daylight Time), Road_Intersection, 60
, , , , , , , , , , , , right, 1, 0.8340000000000032, , , , , , , , , , , , navNearRight.jpg, Go home., right, , , , , navNearRight.jpg, Go home., right, 3, 2, 50, 3, 99990726, Fri Sep 08 2017 10:03:52 GMT-0400 (Eastern Daylight Time), Road_Intersection, 60
, , , , , , , , , , , , right, 1, 0.9329999999999927, , , , , , , , , , , , navNearLeft.jpg, Go away. , right, , , , , navNearLeft.jpg, Go away. , right, 3, 3, 51, 6, 99990726, Fri Sep 08 2017 10:03:52 GMT-0400 (Eastern Daylight Time), Road_Intersection, 60
, , , , , , , , , , , , left, 1, 0.75, , , , , , , , , , , , navNearLeft.jpg, Go home., left, , , , , navNearLeft.jpg, Go home., left, 3, 4, 52, 2, 99990726, Fri Sep 08 2017 10:03:52 GMT-0400 (Eastern Daylight Time), Road_Intersection, 60
, , , , , , , , , , , , right, 1, 0.8670000000000186, , , , , , , , , , , , navFarLeft.jpg, Go away. , right, , , , , navFarLeft.jpg, Go away. , right, 3, 5, 53, 4, 99990726, Fri Sep 08 2017 10:03:52 GMT-0400 (Eastern Daylight Time), Road_Intersection, 60
, , , , , , , , , , , , left, 1, 0.9499999999999886, , , , , , , , , , , , navNearRight.jpg, Go away. , left, , , , , navNearRight.jpg, Go away. , left, 3, 6, 54, 7, 99990726, Fri Sep 08 2017 10:03:52 GMT-0400 (Eastern Daylight Time), Road_Intersection, 60
, , , , , , , , , , , , right, 1, 0.8499999999999659, , , , , , , , , , , , navNearRight.jpg, Go right. , right, , , , , navNearRight.jpg, Go right. , right, 3, 7, 55, 15, 99990726, Fri Sep 08 2017 10:03:52 GMT-0400 (Eastern Daylight Time), Road_Intersection, 60
, , , , , , , , , , , , left, 1, 1.766999999999996, , , , , , , , , , , , navFarRight.jpg, Go right. , left, , , , , navFarRight.jpg, Go right. , left, 3, 8, 56, 13, 99990726, Fri Sep 08 2017 10:03:52 GMT-0400 (Eastern Daylight Time), Road_Intersection, 60
, , , , , , , , , , , , left, 1, 0.9340000000000259, , , , , , , , , , , , navNearLeft.jpg, Go left. , left, , , , , navNearLeft.jpg, Go left. , left, 3, 9, 57, 10, 99990726, Fri Sep 08 2017 10:03:52 GMT-0400 (Eastern Daylight Time), Road_Intersection, 60
, , , , , , , , , , , , right, 1, 1.565999999999974, , , , , , , , , , , , navFarLeft.jpg, Go left. , right, , , , , navFarLeft.jpg, Go left. , right, 3, 10, 58, 8, 99990726, Fri Sep 08 2017 10:03:52 GMT-0400 (Eastern Daylight Time), Road_Intersection, 60
, , , , , , , , , , , , left, 1, 1.6160000000000423, , , , , , , , , , , , navFarLeft.jpg, Go right. , left, , , , , navFarLeft.jpg, Go right. , left, 3, 11, 59, 12, 99990726, Fri Sep 08 2017 10:03:52 GMT-0400 (Eastern Daylight Time), Road_Intersection, 60
, , , , , , , , , , , , right, 1, 0.9909999999999854, , , , , , , , , , , , navFarRight.jpg, Go home., right, , , , , navFarRight.jpg, Go home., right, 3, 12, 60, 1, 99990726, Fri Sep 08 2017 10:03:52 GMT-0400 (Eastern Daylight Time), Road_Intersection, 60
, , , , , , , , , , , , right, 1, 1.3170000000000073, , , , , , , , , , , , navFarRight.jpg, Go left. , right, , , , , navFarRight.jpg, Go left. , right, 3, 13, 61, 9, 99990726, Fri Sep 08 2017 10:03:52 GMT-0400 (Eastern Daylight Time), Road_Intersection, 60
, , , , , , , , , , , , left, 1, 0.9459999999999695, , , , , , , , , , , , navFarLeft.jpg, Go home., left, , , , , navFarLeft.jpg, Go home., left, 3, 14, 62, 0, 99990726, Fri Sep 08 2017 10:03:52 GMT-0400 (Eastern Daylight Time), Road_Intersection, 60
, , , , , , , , , , , , right, 1, 1.0849999999999795, , , , , , , , , , , , navNearLeft.jpg, Go right. , right, , , , , navNearLeft.jpg, Go right. , right, 3, 15, 63, 14, 99990726, Fri Sep 08 2017 10:03:52 GMT-0400 (Eastern Daylight Time), Road_Intersection, 60
