Continue.keys, Continue.rt, instructions_response.keys, instructions_response.rt, repeat_response.keys, repeat_response.rt, key_resp_5.keys, key_resp_5.rt, key_resp_2.keys, key_resp_2.rt, key_resp_4.keys, key_resp_4.rt, Trials_response.keys, Trials_response.corr, Trials_response.rt, Block_Continue.keys, Block_Continue.rt, Image, instructions_1_loop.thisRepN, instructions_1_loop.thisTrialN, instructions_1_loop.thisN, instructions_1_loop.thisIndex, instructions_2_repeat.thisRepN, instructions_2_repeat.thisTrialN, instructions_2_repeat.thisN, instructions_2_repeat.thisIndex, stim, prompt, answer, trials_2.thisRepN, trials_2.thisTrialN, trials_2.thisN, trials_2.thisIndex, stim, prompt, answer, trials.thisRepN, trials.thisTrialN, trials.thisN, trials.thisIndex, participant, date, expName, frameRate
space, 0.26699999999999946, space, 3.349, , , , , , , , , , , , , , Slide15.JPG, 0, 0, 0, 0, , , , , , , , , , , , , , , , , , , 21208596, Mon Aug 28 2017 17:12:57 GMT-0400 (Eastern Daylight Time), Road_Intersection, 60
, , space, 19.582, , , , , , , , , , , , , , Slide16.JPG, 0, 1, 1, 1, , , , , , , , , , , , , , , , , , , 21208596, Mon Aug 28 2017 17:12:57 GMT-0400 (Eastern Daylight Time), Road_Intersection, 60
, , space, 3.1640000000000015, , , , , , , , , , , , , , Slide17.JPG, 0, 2, 2, 2, , , , , , , , , , , , , , , , , , , 21208596, Mon Aug 28 2017 17:12:57 GMT-0400 (Eastern Daylight Time), Road_Intersection, 60
, , space, 2.698999999999998, , , , , , , , , , , , , , Slide18.JPG, 0, 3, 3, 3, , , , , , , , , , , , , , , , , , , 21208596, Mon Aug 28 2017 17:12:57 GMT-0400 (Eastern Daylight Time), Road_Intersection, 60
, , space, 7.9310000000000045, , , , , , , , , , , , , , Slide19.JPG, 0, 4, 4, 4, , , , , , , , , , , , , , , , , , , 21208596, Mon Aug 28 2017 17:12:57 GMT-0400 (Eastern Daylight Time), Road_Intersection, 60
, , space, 9.281000000000006, , , , , , , , , , , , , , Slide20.JPG, 0, 5, 5, 5, , , , , , , , , , , , , , , , , , , 21208596, Mon Aug 28 2017 17:12:57 GMT-0400 (Eastern Daylight Time), Road_Intersection, 60
, , space, 2.915999999999997, , , , , , , , , , , , , , Slide21.JPG, 0, 6, 6, 6, , , , , , , , , , , , , , , , , , , 21208596, Mon Aug 28 2017 17:12:57 GMT-0400 (Eastern Daylight Time), Road_Intersection, 60
, , space, 2.4669999999999987, , , , , , , , , , , , , , Slide22.JPG, 0, 7, 7, 7, , , , , , , , , , , , , , , , , , , 21208596, Mon Aug 28 2017 17:12:57 GMT-0400 (Eastern Daylight Time), Road_Intersection, 60
, , space, 3.4170000000000016, , , , , , , , , , , , , , Slide23.JPG, 0, 8, 8, 8, , , , , , , , , , , , , , , , , , , 21208596, Mon Aug 28 2017 17:12:57 GMT-0400 (Eastern Daylight Time), Road_Intersection, 60
, , space, 0.8489999999999895, , , , , , , , , , , , , , Slide24.JPG, 0, 9, 9, 9, , , , , , , , , , , , , , , , , , , 21208596, Mon Aug 28 2017 17:12:57 GMT-0400 (Eastern Daylight Time), Road_Intersection, 60
, , space, 2.7830000000000013, , , , , , , , , , , , , , Slide25.JPG, 0, 10, 10, 10, , , , , , , , , , , , , , , , , , , 21208596, Mon Aug 28 2017 17:12:57 GMT-0400 (Eastern Daylight Time), Road_Intersection, 60
, , space, 8.215999999999994, , , , , , , , , , , , , , Slide26.JPG, 0, 11, 11, 11, , , , , , , , , , , , , , , , , , , 21208596, Mon Aug 28 2017 17:12:57 GMT-0400 (Eastern Daylight Time), Road_Intersection, 60
, , space, 0.8670000000000044, , , , , , , , , , , , , , Slide27.JPG, 0, 12, 12, 12, , , , , , , , , , , , , , , , , , , 21208596, Mon Aug 28 2017 17:12:57 GMT-0400 (Eastern Daylight Time), Road_Intersection, 60
, , space, 0.8829999999999956, , , , , , , , , , , , , , Slide28.JPG, 0, 13, 13, 13, , , , , , , , , , , , , , , , , , , 21208596, Mon Aug 28 2017 17:12:57 GMT-0400 (Eastern Daylight Time), Road_Intersection, 60
, , , , 0, 354.78499999999997, space, 2.0179999999999723, left, 1.197999999999979, , , , , , , , , , , , , , , , , navFarLeft.jpg, Go right., left, 0, 0, 0, 0, navFarLeft.jpg, Go right., left, , , , , 21208596, Mon Aug 28 2017 17:12:57 GMT-0400 (Eastern Daylight Time), Road_Intersection, 60
, , , , , , , , right, 1.25, , , , , , , , , , , , , , , , , navNearLeft.jpg, Go away., right, 0, 1, 1, 1, navNearLeft.jpg, Go away., right, , , , , 21208596, Mon Aug 28 2017 17:12:57 GMT-0400 (Eastern Daylight Time), Road_Intersection, 60
, , , , , , , , right, 1.7819999999999823, , , , , , , , , , , , , , , , , navFarRight.jpg, Go left., right, 0, 2, 2, 2, navFarRight.jpg, Go left., right, , , , , 21208596, Mon Aug 28 2017 17:12:57 GMT-0400 (Eastern Daylight Time), Road_Intersection, 60
, , , , , , , , right, 0.549000000000035, , , , , , , , , , , , , , , , , navNearRight.jpg, Go home. , right, 0, 3, 3, 3, navNearRight.jpg, Go home. , right, , , , , 21208596, Mon Aug 28 2017 17:12:57 GMT-0400 (Eastern Daylight Time), Road_Intersection, 60
, , , , , , , , left, 1.099999999999966, , , , , , , , , , , , , , , , , navNearLeft.jpg, Go left., left, 0, 4, 4, 4, navNearLeft.jpg, Go left., left, , , , , 21208596, Mon Aug 28 2017 17:12:57 GMT-0400 (Eastern Daylight Time), Road_Intersection, 60
, , , , , , , , right, 0.7989999999999782, , , , , , , , , , , , , , , , , navNearRight.jpg, Go home., right, 0, 5, 5, 5, navNearRight.jpg, Go home., right, , , , , 21208596, Mon Aug 28 2017 17:12:57 GMT-0400 (Eastern Daylight Time), Road_Intersection, 60
, , , , , , , , right, 1.2490000000000236, , , , , , , , , , , , , , , , , navNearLeft.jpg, Go away., right, 0, 6, 6, 6, navNearLeft.jpg, Go away., right, , , , , 21208596, Mon Aug 28 2017 17:12:57 GMT-0400 (Eastern Daylight Time), Road_Intersection, 60
, , , , , , , , left, 0.9189999999999827, , , , , , , , , , , , , , , , , navFarLeft.jpg, Go right., left, 0, 7, 7, 7, navFarLeft.jpg, Go right., left, , , , , 21208596, Mon Aug 28 2017 17:12:57 GMT-0400 (Eastern Daylight Time), Road_Intersection, 60
, , , , , , , , , , space, 3.1830000000000496, right, 1, 1.217999999999961, , , , , , , , , , , , navFarLeft.jpg, Go away. , right, , , , , navFarLeft.jpg, Go away. , right, 0, 0, 0, 4, 21208596, Mon Aug 28 2017 17:12:57 GMT-0400 (Eastern Daylight Time), Road_Intersection, 60
, , , , , , , , , , , , left, 1, 0.6009999999999991, , , , , , , , , , , , navNearLeft.jpg, Go left. , left, , , , , navNearLeft.jpg, Go left. , left, 0, 1, 1, 10, 21208596, Mon Aug 28 2017 17:12:57 GMT-0400 (Eastern Daylight Time), Road_Intersection, 60
, , , , , , , , , , , , right, 1, 1.0349999999999682, , , , , , , , , , , , navNearRight.jpg, Go right. , right, , , , , navNearRight.jpg, Go right. , right, 0, 2, 2, 15, 21208596, Mon Aug 28 2017 17:12:57 GMT-0400 (Eastern Daylight Time), Road_Intersection, 60
, , , , , , , , , , , , left, 1, 1.1649999999999636, , , , , , , , , , , , navFarLeft.jpg, Go right. , left, , , , , navFarLeft.jpg, Go right. , left, 0, 3, 3, 12, 21208596, Mon Aug 28 2017 17:12:57 GMT-0400 (Eastern Daylight Time), Road_Intersection, 60
, , , , , , , , , , , , right, 1, 0.8520000000000891, , , , , , , , , , , , navNearLeft.jpg, Go right. , right, , , , , navNearLeft.jpg, Go right. , right, 0, 4, 4, 14, 21208596, Mon Aug 28 2017 17:12:57 GMT-0400 (Eastern Daylight Time), Road_Intersection, 60
, , , , , , , , , , , , right, 1, 1.1680000000000064, , , , , , , , , , , , navFarLeft.jpg, Go left. , right, , , , , navFarLeft.jpg, Go left. , right, 0, 5, 5, 8, 21208596, Mon Aug 28 2017 17:12:57 GMT-0400 (Eastern Daylight Time), Road_Intersection, 60
, , , , , , , , , , , , right, 1, 1.4990000000000236, , , , , , , , , , , , navNearLeft.jpg, Go away. , right, , , , , navNearLeft.jpg, Go away. , right, 0, 6, 6, 6, 21208596, Mon Aug 28 2017 17:12:57 GMT-0400 (Eastern Daylight Time), Road_Intersection, 60
, , , , , , , , , , , , left, 1, 0.9169999999999163, , , , , , , , , , , , navFarRight.jpg, Go away. , left, , , , , navFarRight.jpg, Go away. , left, 0, 7, 7, 5, 21208596, Mon Aug 28 2017 17:12:57 GMT-0400 (Eastern Daylight Time), Road_Intersection, 60
, , , , , , , , , , , , right, 0, 0.58299999999997, , , , , , , , , , , , navNearRight.jpg, Go away. , left, , , , , navNearRight.jpg, Go away. , left, 0, 8, 8, 7, 21208596, Mon Aug 28 2017 17:12:57 GMT-0400 (Eastern Daylight Time), Road_Intersection, 60
, , , , , , , , , , , , right, 1, 1, , , , , , , , , , , , navFarRight.jpg, Go home., right, , , , , navFarRight.jpg, Go home., right, 0, 9, 9, 1, 21208596, Mon Aug 28 2017 17:12:57 GMT-0400 (Eastern Daylight Time), Road_Intersection, 60
, , , , , , , , , , , , left, 1, 0.7509999999999764, , , , , , , , , , , , navNearLeft.jpg, Go home., left, , , , , navNearLeft.jpg, Go home., left, 0, 10, 10, 2, 21208596, Mon Aug 28 2017 17:12:57 GMT-0400 (Eastern Daylight Time), Road_Intersection, 60
, , , , , , , , , , , , left, 1, 0.7509999999999764, , , , , , , , , , , , navFarLeft.jpg, Go home., left, , , , , navFarLeft.jpg, Go home., left, 0, 11, 11, 0, 21208596, Mon Aug 28 2017 17:12:57 GMT-0400 (Eastern Daylight Time), Road_Intersection, 60
, , , , , , , , , , , , left, 1, 0.9670000000000982, , , , , , , , , , , , navNearRight.jpg, Go left. , left, , , , , navNearRight.jpg, Go left. , left, 0, 12, 12, 11, 21208596, Mon Aug 28 2017 17:12:57 GMT-0400 (Eastern Daylight Time), Road_Intersection, 60
, , , , , , , , , , , , right, 1, 1.2659999999999627, , , , , , , , , , , , navFarRight.jpg, Go left. , right, , , , , navFarRight.jpg, Go left. , right, 0, 13, 13, 9, 21208596, Mon Aug 28 2017 17:12:57 GMT-0400 (Eastern Daylight Time), Road_Intersection, 60
, , , , , , , , , , , , left, 1, 0.8669999999999618, , , , , , , , , , , , navFarRight.jpg, Go right. , left, , , , , navFarRight.jpg, Go right. , left, 0, 14, 14, 13, 21208596, Mon Aug 28 2017 17:12:57 GMT-0400 (Eastern Daylight Time), Road_Intersection, 60
, , , , , , , , , , , , right, 1, 0.6009999999999991, , , , , , , , , , , , navNearRight.jpg, Go home., right, , , , , navNearRight.jpg, Go home., right, 0, 15, 15, 3, 21208596, Mon Aug 28 2017 17:12:57 GMT-0400 (Eastern Daylight Time), Road_Intersection, 60
, , , , , , , , , , , , left, 1, 1.2830000000000155, , , , , , , , , , , , navFarLeft.jpg, Go right. , left, , , , , navFarLeft.jpg, Go right. , left, 1, 0, 16, 12, 21208596, Mon Aug 28 2017 17:12:57 GMT-0400 (Eastern Daylight Time), Road_Intersection, 60
, , , , , , , , , , , , left, 1, 0.9679999999999609, , , , , , , , , , , , navNearLeft.jpg, Go left. , left, , , , , navNearLeft.jpg, Go left. , left, 1, 1, 17, 10, 21208596, Mon Aug 28 2017 17:12:57 GMT-0400 (Eastern Daylight Time), Road_Intersection, 60
, , , , , , , , , , , , right, 1, 0.6660000000000537, , , , , , , , , , , , navFarRight.jpg, Go left. , right, , , , , navFarRight.jpg, Go left. , right, 1, 2, 18, 9, 21208596, Mon Aug 28 2017 17:12:57 GMT-0400 (Eastern Daylight Time), Road_Intersection, 60
, , , , , , , , , , , , left, 1, 0.6499999999999773, , , , , , , , , , , , navFarRight.jpg, Go away. , left, , , , , navFarRight.jpg, Go away. , left, 1, 3, 19, 5, 21208596, Mon Aug 28 2017 17:12:57 GMT-0400 (Eastern Daylight Time), Road_Intersection, 60
, , , , , , , , , , , , right, 1, 0.5009999999999764, , , , , , , , , , , , navNearLeft.jpg, Go right. , right, , , , , navNearLeft.jpg, Go right. , right, 1, 4, 20, 14, 21208596, Mon Aug 28 2017 17:12:57 GMT-0400 (Eastern Daylight Time), Road_Intersection, 60
, , , , , , , , , , , , left, 1, 0.4660000000000082, , , , , , , , , , , , navNearRight.jpg, Go away. , left, , , , , navNearRight.jpg, Go away. , left, 1, 5, 21, 7, 21208596, Mon Aug 28 2017 17:12:57 GMT-0400 (Eastern Daylight Time), Road_Intersection, 60
, , , , , , , , , , , , left, 1, 0.49900000000002365, , , , , , , , , , , , navNearLeft.jpg, Go home., left, , , , , navNearLeft.jpg, Go home., left, 1, 6, 22, 2, 21208596, Mon Aug 28 2017 17:12:57 GMT-0400 (Eastern Daylight Time), Road_Intersection, 60
, , , , , , , , , , , , right, 1, 0.7169999999999845, , , , , , , , , , , , navFarRight.jpg, Go home., right, , , , , navFarRight.jpg, Go home., right, 1, 7, 23, 1, 21208596, Mon Aug 28 2017 17:12:57 GMT-0400 (Eastern Daylight Time), Road_Intersection, 60
, , , , , , , , , , , , left, 1, 0.9160000000000537, , , , , , , , , , , , navFarRight.jpg, Go right. , left, , , , , navFarRight.jpg, Go right. , left, 1, 8, 24, 13, 21208596, Mon Aug 28 2017 17:12:57 GMT-0400 (Eastern Daylight Time), Road_Intersection, 60
, , , , , , , , , , , , right, 1, 0.7160000000000082, , , , , , , , , , , , navFarLeft.jpg, Go left. , right, , , , , navFarLeft.jpg, Go left. , right, 1, 9, 25, 8, 21208596, Mon Aug 28 2017 17:12:57 GMT-0400 (Eastern Daylight Time), Road_Intersection, 60
, , , , , , , , , , , , right, 1, 0.9669999999999845, , , , , , , , , , , , navNearLeft.jpg, Go away. , right, , , , , navNearLeft.jpg, Go away. , right, 1, 10, 26, 6, 21208596, Mon Aug 28 2017 17:12:57 GMT-0400 (Eastern Daylight Time), Road_Intersection, 60
, , , , , , , , , , , , right, 1, 0.7319999999999709, , , , , , , , , , , , navNearRight.jpg, Go right. , right, , , , , navNearRight.jpg, Go right. , right, 1, 11, 27, 15, 21208596, Mon Aug 28 2017 17:12:57 GMT-0400 (Eastern Daylight Time), Road_Intersection, 60
, , , , , , , , , , , , left, 1, 0.6499999999999773, , , , , , , , , , , , navFarLeft.jpg, Go home., left, , , , , navFarLeft.jpg, Go home., left, 1, 12, 28, 0, 21208596, Mon Aug 28 2017 17:12:57 GMT-0400 (Eastern Daylight Time), Road_Intersection, 60
, , , , , , , , , , , , right, 1, 0.9980000000000473, , , , , , , , , , , , navFarLeft.jpg, Go away. , right, , , , , navFarLeft.jpg, Go away. , right, 1, 13, 29, 4, 21208596, Mon Aug 28 2017 17:12:57 GMT-0400 (Eastern Daylight Time), Road_Intersection, 60
, , , , , , , , , , , , left, 1, 0.7830000000000155, , , , , , , , , , , , navNearRight.jpg, Go left. , left, , , , , navNearRight.jpg, Go left. , left, 1, 14, 30, 11, 21208596, Mon Aug 28 2017 17:12:57 GMT-0400 (Eastern Daylight Time), Road_Intersection, 60
, , , , , , , , , , , , right, 1, 0.8820000000000618, , , , , , , , , , , , navNearRight.jpg, Go home., right, , , , , navNearRight.jpg, Go home., right, 1, 15, 31, 3, 21208596, Mon Aug 28 2017 17:12:57 GMT-0400 (Eastern Daylight Time), Road_Intersection, 60
, , , , , , , , , , , , right, 1, 0.8669999999999618, , , , , , , , , , , , navNearLeft.jpg, Go right. , right, , , , , navNearLeft.jpg, Go right. , right, 2, 0, 32, 14, 21208596, Mon Aug 28 2017 17:12:57 GMT-0400 (Eastern Daylight Time), Road_Intersection, 60
, , , , , , , , , , , , right, 1, 0.7659999999999627, , , , , , , , , , , , navNearRight.jpg, Go home., right, , , , , navNearRight.jpg, Go home., right, 2, 1, 33, 3, 21208596, Mon Aug 28 2017 17:12:57 GMT-0400 (Eastern Daylight Time), Road_Intersection, 60
, , , , , , , , , , , , right, 1, 0.7189999999999372, , , , , , , , , , , , navNearRight.jpg, Go right. , right, , , , , navNearRight.jpg, Go right. , right, 2, 2, 34, 15, 21208596, Mon Aug 28 2017 17:12:57 GMT-0400 (Eastern Daylight Time), Road_Intersection, 60
, , , , , , , , , , , , right, 1, 0.8160000000000309, , , , , , , , , , , , navFarRight.jpg, Go home., right, , , , , navFarRight.jpg, Go home., right, 2, 3, 35, 1, 21208596, Mon Aug 28 2017 17:12:57 GMT-0400 (Eastern Daylight Time), Road_Intersection, 60
, , , , , , , , , , , , left, 0, 0.9510000000000218, , , , , , , , , , , , navFarLeft.jpg, Go left. , right, , , , , navFarLeft.jpg, Go left. , right, 2, 4, 36, 8, 21208596, Mon Aug 28 2017 17:12:57 GMT-0400 (Eastern Daylight Time), Road_Intersection, 60
, , , , , , , , , , , , right, 1, 0.8990000000000009, , , , , , , , , , , , navFarLeft.jpg, Go away. , right, , , , , navFarLeft.jpg, Go away. , right, 2, 5, 37, 4, 21208596, Mon Aug 28 2017 17:12:57 GMT-0400 (Eastern Daylight Time), Road_Intersection, 60
, , , , , , , , , , , , left, 1, 1.7659999999999627, , , , , , , , , , , , navFarRight.jpg, Go right. , left, , , , , navFarRight.jpg, Go right. , left, 2, 6, 38, 13, 21208596, Mon Aug 28 2017 17:12:57 GMT-0400 (Eastern Daylight Time), Road_Intersection, 60
, , , , , , , , , , , , right, 1, 1.2989999999999782, , , , , , , , , , , , navFarRight.jpg, Go left. , right, , , , , navFarRight.jpg, Go left. , right, 2, 7, 39, 9, 21208596, Mon Aug 28 2017 17:12:57 GMT-0400 (Eastern Daylight Time), Road_Intersection, 60
, , , , , , , , , , , , left, 1, 1.566000000000031, , , , , , , , , , , , navNearRight.jpg, Go left. , left, , , , , navNearRight.jpg, Go left. , left, 2, 8, 40, 11, 21208596, Mon Aug 28 2017 17:12:57 GMT-0400 (Eastern Daylight Time), Road_Intersection, 60
, , , , , , , , , , , , left, 1, 0.9329999999999927, , , , , , , , , , , , navNearLeft.jpg, Go left. , left, , , , , navNearLeft.jpg, Go left. , left, 2, 9, 41, 10, 21208596, Mon Aug 28 2017 17:12:57 GMT-0400 (Eastern Daylight Time), Road_Intersection, 60
, , , , , , , , , , , , left, 1, 0.7160000000000082, , , , , , , , , , , , navFarLeft.jpg, Go home., left, , , , , navFarLeft.jpg, Go home., left, 2, 10, 42, 0, 21208596, Mon Aug 28 2017 17:12:57 GMT-0400 (Eastern Daylight Time), Road_Intersection, 60
, , , , , , , , , , , , left, 1, 1.5330000000000155, , , , , , , , , , , , navFarLeft.jpg, Go right. , left, , , , , navFarLeft.jpg, Go right. , left, 2, 11, 43, 12, 21208596, Mon Aug 28 2017 17:12:57 GMT-0400 (Eastern Daylight Time), Road_Intersection, 60
, , , , , , , , , , , , left, 1, 1.0500000000000682, , , , , , , , , , , , navFarRight.jpg, Go away. , left, , , , , navFarRight.jpg, Go away. , left, 2, 12, 44, 5, 21208596, Mon Aug 28 2017 17:12:57 GMT-0400 (Eastern Daylight Time), Road_Intersection, 60
, , , , , , , , , , , , left, 1, 0.8020000000000209, , , , , , , , , , , , navNearRight.jpg, Go away. , left, , , , , navNearRight.jpg, Go away. , left, 2, 13, 45, 7, 21208596, Mon Aug 28 2017 17:12:57 GMT-0400 (Eastern Daylight Time), Road_Intersection, 60
, , , , , , , , , , , , left, 1, 0.7999999999999545, , , , , , , , , , , , navNearLeft.jpg, Go home., left, , , , , navNearLeft.jpg, Go home., left, 2, 14, 46, 2, 21208596, Mon Aug 28 2017 17:12:57 GMT-0400 (Eastern Daylight Time), Road_Intersection, 60
, , , , , , , , , , , , right, 1, 0.7839999999999918, , , , , , , , , , , , navNearLeft.jpg, Go away. , right, , , , , navNearLeft.jpg, Go away. , right, 2, 15, 47, 6, 21208596, Mon Aug 28 2017 17:12:57 GMT-0400 (Eastern Daylight Time), Road_Intersection, 60
, , , , , , , , , , , , left, 1, 1.6829999999999927, , , , , , , , , , , , navFarLeft.jpg, Go right. , left, , , , , navFarLeft.jpg, Go right. , left, 3, 0, 48, 12, 21208596, Mon Aug 28 2017 17:12:57 GMT-0400 (Eastern Daylight Time), Road_Intersection, 60
, , , , , , , , , , , , left, 1, 1.0480000000000018, , , , , , , , , , , , navFarRight.jpg, Go away. , left, , , , , navFarRight.jpg, Go away. , left, 3, 1, 49, 5, 21208596, Mon Aug 28 2017 17:12:57 GMT-0400 (Eastern Daylight Time), Road_Intersection, 60
, , , , , , , , , , , , right, 1, 0.6330000000000382, , , , , , , , , , , , navNearRight.jpg, Go right. , right, , , , , navNearRight.jpg, Go right. , right, 3, 2, 50, 15, 21208596, Mon Aug 28 2017 17:12:57 GMT-0400 (Eastern Daylight Time), Road_Intersection, 60
, , , , , , , , , , , , right, 1, 0.7660000000000764, , , , , , , , , , , , navFarLeft.jpg, Go away. , right, , , , , navFarLeft.jpg, Go away. , right, 3, 3, 51, 4, 21208596, Mon Aug 28 2017 17:12:57 GMT-0400 (Eastern Daylight Time), Road_Intersection, 60
, , , , , , , , , , , , right, 1, 0.7199999999999136, , , , , , , , , , , , navNearRight.jpg, Go home., right, , , , , navNearRight.jpg, Go home., right, 3, 4, 52, 3, 21208596, Mon Aug 28 2017 17:12:57 GMT-0400 (Eastern Daylight Time), Road_Intersection, 60
, , , , , , , , , , , , left, 1, 1.7819999999999254, , , , , , , , , , , , navNearRight.jpg, Go away. , left, , , , , navNearRight.jpg, Go away. , left, 3, 5, 53, 7, 21208596, Mon Aug 28 2017 17:12:57 GMT-0400 (Eastern Daylight Time), Road_Intersection, 60
, , , , , , , , , , , , right, 1, 0.7329999999999472, , , , , , , , , , , , navNearLeft.jpg, Go right. , right, , , , , navNearLeft.jpg, Go right. , right, 3, 6, 54, 14, 21208596, Mon Aug 28 2017 17:12:57 GMT-0400 (Eastern Daylight Time), Road_Intersection, 60
, , , , , , , , , , , , right, 1, 1.0650000000000546, , , , , , , , , , , , navFarLeft.jpg, Go left. , right, , , , , navFarLeft.jpg, Go left. , right, 3, 7, 55, 8, 21208596, Mon Aug 28 2017 17:12:57 GMT-0400 (Eastern Daylight Time), Road_Intersection, 60
, , , , , , , , , , , , left, 1, 1.6000000000000227, , , , , , , , , , , , navFarRight.jpg, Go right. , left, , , , , navFarRight.jpg, Go right. , left, 3, 8, 56, 13, 21208596, Mon Aug 28 2017 17:12:57 GMT-0400 (Eastern Daylight Time), Road_Intersection, 60
, , , , , , , , , , , , left, 1, 0.8999999999999773, , , , , , , , , , , , navNearRight.jpg, Go left. , left, , , , , navNearRight.jpg, Go left. , left, 3, 9, 57, 11, 21208596, Mon Aug 28 2017 17:12:57 GMT-0400 (Eastern Daylight Time), Road_Intersection, 60
, , , , , , , , , , , , right, 1, 1.2830000000000155, , , , , , , , , , , , navFarRight.jpg, Go left. , right, , , , , navFarRight.jpg, Go left. , right, 3, 10, 58, 9, 21208596, Mon Aug 28 2017 17:12:57 GMT-0400 (Eastern Daylight Time), Road_Intersection, 60
, , , , , , , , , , , , right, 1, 0.6989999999999554, , , , , , , , , , , , navFarRight.jpg, Go home., right, , , , , navFarRight.jpg, Go home., right, 3, 11, 59, 1, 21208596, Mon Aug 28 2017 17:12:57 GMT-0400 (Eastern Daylight Time), Road_Intersection, 60
, , , , , , , , , , , , left, 1, 0.8020000000000209, , , , , , , , , , , , navNearLeft.jpg, Go home., left, , , , , navNearLeft.jpg, Go home., left, 3, 12, 60, 2, 21208596, Mon Aug 28 2017 17:12:57 GMT-0400 (Eastern Daylight Time), Road_Intersection, 60
, , , , , , , , , , , , left, 1, 1.0130000000000337, , , , , , , , , , , , navFarLeft.jpg, Go home., left, , , , , navFarLeft.jpg, Go home., left, 3, 13, 61, 0, 21208596, Mon Aug 28 2017 17:12:57 GMT-0400 (Eastern Daylight Time), Road_Intersection, 60
, , , , , , , , , , , , right, 1, 0.8500000000000227, , , , , , , , , , , , navNearLeft.jpg, Go away. , right, , , , , navNearLeft.jpg, Go away. , right, 3, 14, 62, 6, 21208596, Mon Aug 28 2017 17:12:57 GMT-0400 (Eastern Daylight Time), Road_Intersection, 60
, , , , , , , , , , , , left, 1, 0.66700000000003, , , , , , , , , , , , navNearLeft.jpg, Go left. , left, , , , , navNearLeft.jpg, Go left. , left, 3, 15, 63, 10, 21208596, Mon Aug 28 2017 17:12:57 GMT-0400 (Eastern Daylight Time), Road_Intersection, 60
