Continue.keys, Continue.rt, instructions_response.keys, instructions_response.rt, repeat_response.keys, repeat_response.rt, key_resp_5.keys, key_resp_5.rt, key_resp_2.keys, key_resp_2.rt, key_resp_4.keys, key_resp_4.rt, Trials_response.keys, Trials_response.corr, Trials_response.rt, Block_Continue.keys, Block_Continue.rt, Image, instructions_1_loop.thisRepN, instructions_1_loop.thisTrialN, instructions_1_loop.thisN, instructions_1_loop.thisIndex, instructions_2_repeat.thisRepN, instructions_2_repeat.thisTrialN, instructions_2_repeat.thisN, instructions_2_repeat.thisIndex, stim, prompt, answer, trials_2.thisRepN, trials_2.thisTrialN, trials_2.thisN, trials_2.thisIndex, stim, prompt, answer, trials.thisRepN, trials.thisTrialN, trials.thisN, trials.thisIndex, participant, date, expName, frameRate
space, 1.918999999999997, space, 7.780000000000001, , , , , , , , , , , , , , Slide15.JPG, 0, 0, 0, 0, , , , , , , , , , , , , , , , , , , 40119543, Tue Sep 19 2017 16:46:59 GMT-0400 (Eastern Daylight Time), Road_Intersection, 60
, , space, 20.408999999999992, , , , , , , , , , , , , , Slide16.JPG, 0, 1, 1, 1, , , , , , , , , , , , , , , , , , , 40119543, Tue Sep 19 2017 16:46:59 GMT-0400 (Eastern Daylight Time), Road_Intersection, 60
, , space, 8.245000000000005, , , , , , , , , , , , , , Slide17.JPG, 0, 2, 2, 2, , , , , , , , , , , , , , , , , , , 40119543, Tue Sep 19 2017 16:46:59 GMT-0400 (Eastern Daylight Time), Road_Intersection, 60
, , space, 4.7960000000000065, , , , , , , , , , , , , , Slide18.JPG, 0, 3, 3, 3, , , , , , , , , , , , , , , , , , , 40119543, Tue Sep 19 2017 16:46:59 GMT-0400 (Eastern Daylight Time), Road_Intersection, 60
, , space, 24.48700000000001, , , , , , , , , , , , , , Slide19.JPG, 0, 4, 4, 4, , , , , , , , , , , , , , , , , , , 40119543, Tue Sep 19 2017 16:46:59 GMT-0400 (Eastern Daylight Time), Road_Intersection, 60
, , space, 18.62699999999998, , , , , , , , , , , , , , Slide20.JPG, 0, 5, 5, 5, , , , , , , , , , , , , , , , , , , 40119543, Tue Sep 19 2017 16:46:59 GMT-0400 (Eastern Daylight Time), Road_Intersection, 60
, , space, 14.794000000000011, , , , , , , , , , , , , , Slide21.JPG, 0, 6, 6, 6, , , , , , , , , , , , , , , , , , , 40119543, Tue Sep 19 2017 16:46:59 GMT-0400 (Eastern Daylight Time), Road_Intersection, 60
, , space, 17.906000000000006, , , , , , , , , , , , , , Slide22.JPG, 0, 7, 7, 7, , , , , , , , , , , , , , , , , , , 40119543, Tue Sep 19 2017 16:46:59 GMT-0400 (Eastern Daylight Time), Road_Intersection, 60
, , space, 5.213999999999999, , , , , , , , , , , , , , Slide23.JPG, 0, 8, 8, 8, , , , , , , , , , , , , , , , , , , 40119543, Tue Sep 19 2017 16:46:59 GMT-0400 (Eastern Daylight Time), Road_Intersection, 60
, , space, 5.378999999999991, , , , , , , , , , , , , , Slide24.JPG, 0, 9, 9, 9, , , , , , , , , , , , , , , , , , , 40119543, Tue Sep 19 2017 16:46:59 GMT-0400 (Eastern Daylight Time), Road_Intersection, 60
, , space, 4.25, , , , , , , , , , , , , , Slide25.JPG, 0, 10, 10, 10, , , , , , , , , , , , , , , , , , , 40119543, Tue Sep 19 2017 16:46:59 GMT-0400 (Eastern Daylight Time), Road_Intersection, 60
, , space, 2.365000000000009, , , , , , , , , , , , , , Slide26.JPG, 0, 11, 11, 11, , , , , , , , , , , , , , , , , , , 40119543, Tue Sep 19 2017 16:46:59 GMT-0400 (Eastern Daylight Time), Road_Intersection, 60
, , space, 2.282999999999987, , , , , , , , , , , , , , Slide27.JPG, 0, 12, 12, 12, , , , , , , , , , , , , , , , , , , 40119543, Tue Sep 19 2017 16:46:59 GMT-0400 (Eastern Daylight Time), Road_Intersection, 60
, , space, 3.031000000000006, , , , , , , , , , , , , , Slide28.JPG, 0, 13, 13, 13, , , , , , , , , , , , , , , , , , , 40119543, Tue Sep 19 2017 16:46:59 GMT-0400 (Eastern Daylight Time), Road_Intersection, 60
, , , , 0, 11.878000000000014, space, 12.777000000000015, left, 2.72799999999998, , , , , , , , , , , , , , , , , navFarLeft.jpg, Go right., left, 0, 0, 0, 0, navFarLeft.jpg, Go right., left, , , , , 40119543, Tue Sep 19 2017 16:46:59 GMT-0400 (Eastern Daylight Time), Road_Intersection, 60
, , , , , , , , right, 2.048000000000002, , , , , , , , , , , , , , , , , navNearLeft.jpg, Go away., right, 0, 1, 1, 1, navNearLeft.jpg, Go away., right, , , , , 40119543, Tue Sep 19 2017 16:46:59 GMT-0400 (Eastern Daylight Time), Road_Intersection, 60
, , , , , , , , left, 2.782000000000039, , , , , , , , , , , , , , , , , navFarRight.jpg, Go left., right, 0, 2, 2, 2, navFarRight.jpg, Go left., right, , , , , 40119543, Tue Sep 19 2017 16:46:59 GMT-0400 (Eastern Daylight Time), Road_Intersection, 60
, , , , , , , , right, 1.461999999999989, , , , , , , , , , , , , , , , , navNearRight.jpg, Go home. , right, 0, 3, 3, 3, navNearRight.jpg, Go home. , right, , , , , 40119543, Tue Sep 19 2017 16:46:59 GMT-0400 (Eastern Daylight Time), Road_Intersection, 60
, , , , , , , , left, 1.6809999999999832, , , , , , , , , , , , , , , , , navNearLeft.jpg, Go left., left, 0, 4, 4, 4, navNearLeft.jpg, Go left., left, , , , , 40119543, Tue Sep 19 2017 16:46:59 GMT-0400 (Eastern Daylight Time), Road_Intersection, 60
, , , , , , , , right, 1.363999999999976, , , , , , , , , , , , , , , , , navNearRight.jpg, Go home., right, 0, 5, 5, 5, navNearRight.jpg, Go home., right, , , , , 40119543, Tue Sep 19 2017 16:46:59 GMT-0400 (Eastern Daylight Time), Road_Intersection, 60
, , , , , , , , right, 1.3969999999999914, , , , , , , , , , , , , , , , , navNearLeft.jpg, Go away., right, 0, 6, 6, 6, navNearLeft.jpg, Go away., right, , , , , 40119543, Tue Sep 19 2017 16:46:59 GMT-0400 (Eastern Daylight Time), Road_Intersection, 60
, , , , , , , , left, 1.8450000000000273, , , , , , , , , , , , , , , , , navFarLeft.jpg, Go right., left, 0, 7, 7, 7, navFarLeft.jpg, Go right., left, , , , , 40119543, Tue Sep 19 2017 16:46:59 GMT-0400 (Eastern Daylight Time), Road_Intersection, 60
, , , , , , , , , , space, 11.33099999999996, left, 1, 1.6129999999999995, , , , , , , , , , , , navFarRight.jpg, Go away. , left, , , , , navFarRight.jpg, Go away. , left, 0, 0, 0, 5, 40119543, Tue Sep 19 2017 16:46:59 GMT-0400 (Eastern Daylight Time), Road_Intersection, 60
, , , , , , , , , , , , right, 1, 2.7630000000000337, , , , , , , , , , , , navFarRight.jpg, Go left. , right, , , , , navFarRight.jpg, Go left. , right, 0, 1, 1, 9, 40119543, Tue Sep 19 2017 16:46:59 GMT-0400 (Eastern Daylight Time), Road_Intersection, 60
, , , , , , , , , , , , right, 1, 1.5160000000000196, , , , , , , , , , , , navFarLeft.jpg, Go left. , right, , , , , navFarLeft.jpg, Go left. , right, 0, 2, 2, 8, 40119543, Tue Sep 19 2017 16:46:59 GMT-0400 (Eastern Daylight Time), Road_Intersection, 60
, , , , , , , , , , , , right, 1, 1.0639999999999645, , , , , , , , , , , , navNearLeft.jpg, Go away. , right, , , , , navNearLeft.jpg, Go away. , right, 0, 3, 3, 6, 40119543, Tue Sep 19 2017 16:46:59 GMT-0400 (Eastern Daylight Time), Road_Intersection, 60
, , , , , , , , , , , , right, 1, 1.085999999999956, , , , , , , , , , , , navNearRight.jpg, Go right. , right, , , , , navNearRight.jpg, Go right. , right, 0, 4, 4, 15, 40119543, Tue Sep 19 2017 16:46:59 GMT-0400 (Eastern Daylight Time), Road_Intersection, 60
, , , , , , , , , , , , left, 1, 1.1990000000000123, , , , , , , , , , , , navNearRight.jpg, Go away. , left, , , , , navNearRight.jpg, Go away. , left, 0, 5, 5, 7, 40119543, Tue Sep 19 2017 16:46:59 GMT-0400 (Eastern Daylight Time), Road_Intersection, 60
, , , , , , , , , , , , right, 1, 1.1639999999999873, , , , , , , , , , , , navFarLeft.jpg, Go away. , right, , , , , navFarLeft.jpg, Go away. , right, 0, 6, 6, 4, 40119543, Tue Sep 19 2017 16:46:59 GMT-0400 (Eastern Daylight Time), Road_Intersection, 60
, , , , , , , , , , , , left, 1, 1.4159999999999968, , , , , , , , , , , , navFarLeft.jpg, Go right. , left, , , , , navFarLeft.jpg, Go right. , left, 0, 7, 7, 12, 40119543, Tue Sep 19 2017 16:46:59 GMT-0400 (Eastern Daylight Time), Road_Intersection, 60
, , , , , , , , , , , , left, 1, 1.1829999999999927, , , , , , , , , , , , navNearLeft.jpg, Go left. , left, , , , , navNearLeft.jpg, Go left. , left, 0, 8, 8, 10, 40119543, Tue Sep 19 2017 16:46:59 GMT-0400 (Eastern Daylight Time), Road_Intersection, 60
, , , , , , , , , , , , left, 1, 1.2169999999999845, , , , , , , , , , , , navFarLeft.jpg, Go home., left, , , , , navFarLeft.jpg, Go home., left, 0, 9, 9, 0, 40119543, Tue Sep 19 2017 16:46:59 GMT-0400 (Eastern Daylight Time), Road_Intersection, 60
, , , , , , , , , , , , right, 1, 1.0690000000000168, , , , , , , , , , , , navNearLeft.jpg, Go right. , right, , , , , navNearLeft.jpg, Go right. , right, 0, 10, 10, 14, 40119543, Tue Sep 19 2017 16:46:59 GMT-0400 (Eastern Daylight Time), Road_Intersection, 60
, , , , , , , , , , , , right, 1, 1.0339999999999918, , , , , , , , , , , , navFarRight.jpg, Go home., right, , , , , navFarRight.jpg, Go home., right, 0, 11, 11, 1, 40119543, Tue Sep 19 2017 16:46:59 GMT-0400 (Eastern Daylight Time), Road_Intersection, 60
, , , , , , , , , , , , right, 1, 0.7489999999999668, , , , , , , , , , , , navNearRight.jpg, Go home., right, , , , , navNearRight.jpg, Go home., right, 0, 12, 12, 3, 40119543, Tue Sep 19 2017 16:46:59 GMT-0400 (Eastern Daylight Time), Road_Intersection, 60
, , , , , , , , , , , , left, 1, 0.8659999999999854, , , , , , , , , , , , navNearRight.jpg, Go left. , left, , , , , navNearRight.jpg, Go left. , left, 0, 13, 13, 11, 40119543, Tue Sep 19 2017 16:46:59 GMT-0400 (Eastern Daylight Time), Road_Intersection, 60
, , , , , , , , , , , , left, 1, 1.6170000000000186, , , , , , , , , , , , navFarRight.jpg, Go right. , left, , , , , navFarRight.jpg, Go right. , left, 0, 14, 14, 13, 40119543, Tue Sep 19 2017 16:46:59 GMT-0400 (Eastern Daylight Time), Road_Intersection, 60
, , , , , , , , , , , , left, 1, 1.1970000000000027, , , , , , , , , , , , navNearLeft.jpg, Go home., left, , , , , navNearLeft.jpg, Go home., left, 0, 15, 15, 2, 40119543, Tue Sep 19 2017 16:46:59 GMT-0400 (Eastern Daylight Time), Road_Intersection, 60
, , , , , , , , , , , , right, 1, 0.8640000000000327, , , , , , , , , , , , navNearRight.jpg, Go right. , right, , , , , navNearRight.jpg, Go right. , right, 1, 0, 16, 15, 40119543, Tue Sep 19 2017 16:46:59 GMT-0400 (Eastern Daylight Time), Road_Intersection, 60
, , , , , , , , , , , , right, 1, 1.5840000000000032, , , , , , , , , , , , navNearRight.jpg, Go home., right, , , , , navNearRight.jpg, Go home., right, 1, 1, 17, 3, 40119543, Tue Sep 19 2017 16:46:59 GMT-0400 (Eastern Daylight Time), Road_Intersection, 60
, , , , , , , , , , , , left, 1, 1.2169999999999845, , , , , , , , , , , , navFarRight.jpg, Go right. , left, , , , , navFarRight.jpg, Go right. , left, 1, 2, 18, 13, 40119543, Tue Sep 19 2017 16:46:59 GMT-0400 (Eastern Daylight Time), Road_Intersection, 60
, , , , , , , , , , , , left, 1, 0.8340000000000032, , , , , , , , , , , , navNearLeft.jpg, Go home., left, , , , , navNearLeft.jpg, Go home., left, 1, 3, 19, 2, 40119543, Tue Sep 19 2017 16:46:59 GMT-0400 (Eastern Daylight Time), Road_Intersection, 60
, , , , , , , , , , , , right, 1, 1.76400000000001, , , , , , , , , , , , navFarRight.jpg, Go left. , right, , , , , navFarRight.jpg, Go left. , right, 1, 4, 20, 9, 40119543, Tue Sep 19 2017 16:46:59 GMT-0400 (Eastern Daylight Time), Road_Intersection, 60
, , , , , , , , , , , , right, 1, 1.2489999999999668, , , , , , , , , , , , navNearLeft.jpg, Go right. , right, , , , , navNearLeft.jpg, Go right. , right, 1, 5, 21, 14, 40119543, Tue Sep 19 2017 16:46:59 GMT-0400 (Eastern Daylight Time), Road_Intersection, 60
, , , , , , , , , , , , left, 1, 0.8019999999999641, , , , , , , , , , , , navNearLeft.jpg, Go left. , left, , , , , navNearLeft.jpg, Go left. , left, 1, 6, 22, 10, 40119543, Tue Sep 19 2017 16:46:59 GMT-0400 (Eastern Daylight Time), Road_Intersection, 60
, , , , , , , , , , , , right, 1, 1.115000000000009, , , , , , , , , , , , navFarRight.jpg, Go home., right, , , , , navFarRight.jpg, Go home., right, 1, 7, 23, 1, 40119543, Tue Sep 19 2017 16:46:59 GMT-0400 (Eastern Daylight Time), Road_Intersection, 60
, , , , , , , , , , , , left, 1, 1.1850000000000023, , , , , , , , , , , , navNearRight.jpg, Go left. , left, , , , , navNearRight.jpg, Go left. , left, 1, 8, 24, 11, 40119543, Tue Sep 19 2017 16:46:59 GMT-0400 (Eastern Daylight Time), Road_Intersection, 60
, , , , , , , , , , , , right, 1, 1.2150000000000318, , , , , , , , , , , , navFarLeft.jpg, Go away. , right, , , , , navFarLeft.jpg, Go away. , right, 1, 9, 25, 4, 40119543, Tue Sep 19 2017 16:46:59 GMT-0400 (Eastern Daylight Time), Road_Intersection, 60
, , , , , , , , , , , , left, 1, 1.0329999999999586, , , , , , , , , , , , navFarLeft.jpg, Go right. , left, , , , , navFarLeft.jpg, Go right. , left, 1, 10, 26, 12, 40119543, Tue Sep 19 2017 16:46:59 GMT-0400 (Eastern Daylight Time), Road_Intersection, 60
, , , , , , , , , , , , left, 1, 1.613999999999976, , , , , , , , , , , , navFarRight.jpg, Go away. , left, , , , , navFarRight.jpg, Go away. , left, 1, 11, 27, 5, 40119543, Tue Sep 19 2017 16:46:59 GMT-0400 (Eastern Daylight Time), Road_Intersection, 60
, , , , , , , , , , , , left, 1, 1.0679999999999836, , , , , , , , , , , , navFarLeft.jpg, Go home., left, , , , , navFarLeft.jpg, Go home., left, 1, 12, 28, 0, 40119543, Tue Sep 19 2017 16:46:59 GMT-0400 (Eastern Daylight Time), Road_Intersection, 60
, , , , , , , , , , , , right, 1, 1.2010000000000218, , , , , , , , , , , , navFarLeft.jpg, Go left. , right, , , , , navFarLeft.jpg, Go left. , right, 1, 13, 29, 8, 40119543, Tue Sep 19 2017 16:46:59 GMT-0400 (Eastern Daylight Time), Road_Intersection, 60
, , , , , , , , , , , , left, 1, 1.0500000000000114, , , , , , , , , , , , navNearRight.jpg, Go away. , left, , , , , navNearRight.jpg, Go away. , left, 1, 14, 30, 7, 40119543, Tue Sep 19 2017 16:46:59 GMT-0400 (Eastern Daylight Time), Road_Intersection, 60
, , , , , , , , , , , , right, 1, 1.1170000000000186, , , , , , , , , , , , navNearLeft.jpg, Go away. , right, , , , , navNearLeft.jpg, Go away. , right, 1, 15, 31, 6, 40119543, Tue Sep 19 2017 16:46:59 GMT-0400 (Eastern Daylight Time), Road_Intersection, 60
, , , , , , , , , , , , right, 1, 1.031000000000006, , , , , , , , , , , , navFarLeft.jpg, Go away. , right, , , , , navFarLeft.jpg, Go away. , right, 2, 0, 32, 4, 40119543, Tue Sep 19 2017 16:46:59 GMT-0400 (Eastern Daylight Time), Road_Intersection, 60
, , , , , , , , , , , , left, 1, 1.0840000000000032, , , , , , , , , , , , navFarLeft.jpg, Go home., left, , , , , navFarLeft.jpg, Go home., left, 2, 1, 33, 0, 40119543, Tue Sep 19 2017 16:46:59 GMT-0400 (Eastern Daylight Time), Road_Intersection, 60
, , , , , , , , , , , , right, 1, 1.016999999999996, , , , , , , , , , , , navFarRight.jpg, Go home., right, , , , , navFarRight.jpg, Go home., right, 2, 2, 34, 1, 40119543, Tue Sep 19 2017 16:46:59 GMT-0400 (Eastern Daylight Time), Road_Intersection, 60
, , , , , , , , , , , , right, 1, 0.9839999999999804, , , , , , , , , , , , navNearRight.jpg, Go home., right, , , , , navNearRight.jpg, Go home., right, 2, 3, 35, 3, 40119543, Tue Sep 19 2017 16:46:59 GMT-0400 (Eastern Daylight Time), Road_Intersection, 60
, , , , , , , , , , , , right, 1, 1.8489999999999895, , , , , , , , , , , , navFarRight.jpg, Go left. , right, , , , , navFarRight.jpg, Go left. , right, 2, 4, 36, 9, 40119543, Tue Sep 19 2017 16:46:59 GMT-0400 (Eastern Daylight Time), Road_Intersection, 60
, , , , , , , , , , , , left, 1, 1.2490000000000236, , , , , , , , , , , , navNearRight.jpg, Go away. , left, , , , , navNearRight.jpg, Go away. , left, 2, 5, 37, 7, 40119543, Tue Sep 19 2017 16:46:59 GMT-0400 (Eastern Daylight Time), Road_Intersection, 60
, , , , , , , , , , , , left, 1, 1.1680000000000064, , , , , , , , , , , , navNearRight.jpg, Go left. , left, , , , , navNearRight.jpg, Go left. , left, 2, 6, 38, 11, 40119543, Tue Sep 19 2017 16:46:59 GMT-0400 (Eastern Daylight Time), Road_Intersection, 60
, , , , , , , , , , , , right, 1, 1.197999999999979, , , , , , , , , , , , navFarLeft.jpg, Go left. , right, , , , , navFarLeft.jpg, Go left. , right, 2, 7, 39, 8, 40119543, Tue Sep 19 2017 16:46:59 GMT-0400 (Eastern Daylight Time), Road_Intersection, 60
, , , , , , , , , , , , left, 1, 1.1829999999999927, , , , , , , , , , , , navFarRight.jpg, Go right. , left, , , , , navFarRight.jpg, Go right. , left, 2, 8, 40, 13, 40119543, Tue Sep 19 2017 16:46:59 GMT-0400 (Eastern Daylight Time), Road_Intersection, 60
, , , , , , , , , , , , right, 1, 1.2160000000000082, , , , , , , , , , , , navNearLeft.jpg, Go right. , right, , , , , navNearLeft.jpg, Go right. , right, 2, 9, 41, 14, 40119543, Tue Sep 19 2017 16:46:59 GMT-0400 (Eastern Daylight Time), Road_Intersection, 60
, , , , , , , , , , , , right, 1, 1.218999999999994, , , , , , , , , , , , navNearRight.jpg, Go right. , right, , , , , navNearRight.jpg, Go right. , right, 2, 10, 42, 15, 40119543, Tue Sep 19 2017 16:46:59 GMT-0400 (Eastern Daylight Time), Road_Intersection, 60
, , , , , , , , , , , , left, 1, 0.8520000000000323, , , , , , , , , , , , navNearLeft.jpg, Go left. , left, , , , , navNearLeft.jpg, Go left. , left, 2, 11, 43, 10, 40119543, Tue Sep 19 2017 16:46:59 GMT-0400 (Eastern Daylight Time), Road_Intersection, 60
, , , , , , , , , , , , right, 1, 1.016999999999996, , , , , , , , , , , , navNearLeft.jpg, Go away. , right, , , , , navNearLeft.jpg, Go away. , right, 2, 12, 44, 6, 40119543, Tue Sep 19 2017 16:46:59 GMT-0400 (Eastern Daylight Time), Road_Intersection, 60
, , , , , , , , , , , , left, 1, 1.1650000000000205, , , , , , , , , , , , navNearLeft.jpg, Go home., left, , , , , navNearLeft.jpg, Go home., left, 2, 13, 45, 2, 40119543, Tue Sep 19 2017 16:46:59 GMT-0400 (Eastern Daylight Time), Road_Intersection, 60
, , , , , , , , , , , , left, 1, 1.399000000000001, , , , , , , , , , , , navFarLeft.jpg, Go right. , left, , , , , navFarLeft.jpg, Go right. , left, 2, 14, 46, 12, 40119543, Tue Sep 19 2017 16:46:59 GMT-0400 (Eastern Daylight Time), Road_Intersection, 60
, , , , , , , , , , , , left, 1, 1.049000000000035, , , , , , , , , , , , navFarRight.jpg, Go away. , left, , , , , navFarRight.jpg, Go away. , left, 2, 15, 47, 5, 40119543, Tue Sep 19 2017 16:46:59 GMT-0400 (Eastern Daylight Time), Road_Intersection, 60
, , , , , , , , , , , , right, 1, 1.1170000000000186, , , , , , , , , , , , navFarLeft.jpg, Go left. , right, , , , , navFarLeft.jpg, Go left. , right, 3, 0, 48, 8, 40119543, Tue Sep 19 2017 16:46:59 GMT-0400 (Eastern Daylight Time), Road_Intersection, 60
, , , , , , , , , , , , right, 1, 1.2630000000000337, , , , , , , , , , , , navNearLeft.jpg, Go away. , right, , , , , navNearLeft.jpg, Go away. , right, 3, 1, 49, 6, 40119543, Tue Sep 19 2017 16:46:59 GMT-0400 (Eastern Daylight Time), Road_Intersection, 60
, , , , , , , , , , , , left, 1, 1.0500000000000114, , , , , , , , , , , , navNearLeft.jpg, Go home., left, , , , , navNearLeft.jpg, Go home., left, 3, 2, 50, 2, 40119543, Tue Sep 19 2017 16:46:59 GMT-0400 (Eastern Daylight Time), Road_Intersection, 60
, , , , , , , , , , , , right, 1, 1.2150000000000318, , , , , , , , , , , , navNearRight.jpg, Go right. , right, , , , , navNearRight.jpg, Go right. , right, 3, 3, 51, 15, 40119543, Tue Sep 19 2017 16:46:59 GMT-0400 (Eastern Daylight Time), Road_Intersection, 60
, , , , , , , , , , , , left, 1, 1.399000000000001, , , , , , , , , , , , navFarLeft.jpg, Go home., left, , , , , navFarLeft.jpg, Go home., left, 3, 4, 52, 0, 40119543, Tue Sep 19 2017 16:46:59 GMT-0400 (Eastern Daylight Time), Road_Intersection, 60
, , , , , , , , , , , , left, 1, 1.2649999999999864, , , , , , , , , , , , navFarLeft.jpg, Go right. , left, , , , , navFarLeft.jpg, Go right. , left, 3, 5, 53, 12, 40119543, Tue Sep 19 2017 16:46:59 GMT-0400 (Eastern Daylight Time), Road_Intersection, 60
, , , , , , , , , , , , left, 1, 1.5339999999999918, , , , , , , , , , , , navFarRight.jpg, Go right. , left, , , , , navFarRight.jpg, Go right. , left, 3, 6, 54, 13, 40119543, Tue Sep 19 2017 16:46:59 GMT-0400 (Eastern Daylight Time), Road_Intersection, 60
, , , , , , , , , , , , right, 1, 1.0160000000000196, , , , , , , , , , , , navFarRight.jpg, Go home., right, , , , , navFarRight.jpg, Go home., right, 3, 7, 55, 1, 40119543, Tue Sep 19 2017 16:46:59 GMT-0400 (Eastern Daylight Time), Road_Intersection, 60
, , , , , , , , , , , , right, 1, 1.0830000000000268, , , , , , , , , , , , navNearRight.jpg, Go home., right, , , , , navNearRight.jpg, Go home., right, 3, 8, 56, 3, 40119543, Tue Sep 19 2017 16:46:59 GMT-0400 (Eastern Daylight Time), Road_Intersection, 60
, , , , , , , , , , , , left, 1, 0.8179999999999836, , , , , , , , , , , , navNearRight.jpg, Go away. , left, , , , , navNearRight.jpg, Go away. , left, 3, 9, 57, 7, 40119543, Tue Sep 19 2017 16:46:59 GMT-0400 (Eastern Daylight Time), Road_Intersection, 60
, , , , , , , , , , , , left, 1, 1.099999999999966, , , , , , , , , , , , navNearLeft.jpg, Go left. , left, , , , , navNearLeft.jpg, Go left. , left, 3, 10, 58, 10, 40119543, Tue Sep 19 2017 16:46:59 GMT-0400 (Eastern Daylight Time), Road_Intersection, 60
, , , , , , , , , , , , left, 1, 1.4809999999999945, , , , , , , , , , , , navFarRight.jpg, Go away. , left, , , , , navFarRight.jpg, Go away. , left, 3, 11, 59, 5, 40119543, Tue Sep 19 2017 16:46:59 GMT-0400 (Eastern Daylight Time), Road_Intersection, 60
, , , , , , , , , , , , right, 1, 1.0509999999999309, , , , , , , , , , , , navNearLeft.jpg, Go right. , right, , , , , navNearLeft.jpg, Go right. , right, 3, 12, 60, 14, 40119543, Tue Sep 19 2017 16:46:59 GMT-0400 (Eastern Daylight Time), Road_Intersection, 60
, , , , , , , , , , , , left, 1, 1.0330000000000155, , , , , , , , , , , , navNearRight.jpg, Go left. , left, , , , , navNearRight.jpg, Go left. , left, 3, 13, 61, 11, 40119543, Tue Sep 19 2017 16:46:59 GMT-0400 (Eastern Daylight Time), Road_Intersection, 60
, , , , , , , , , , , , right, 1, 1.0990000000000464, , , , , , , , , , , , navFarLeft.jpg, Go away. , right, , , , , navFarLeft.jpg, Go away. , right, 3, 14, 62, 4, 40119543, Tue Sep 19 2017 16:46:59 GMT-0400 (Eastern Daylight Time), Road_Intersection, 60
, , , , , , , , , , , , right, 1, 1.2989999999999782, , , , , , , , , , , , navFarRight.jpg, Go left. , right, , , , , navFarRight.jpg, Go left. , right, 3, 15, 63, 9, 40119543, Tue Sep 19 2017 16:46:59 GMT-0400 (Eastern Daylight Time), Road_Intersection, 60
