Continue.keys, Continue.rt, instructions_response.keys, instructions_response.rt, repeat_response.keys, repeat_response.rt, key_resp_5.keys, key_resp_5.rt, key_resp_2.keys, key_resp_2.rt, key_resp_4.keys, key_resp_4.rt, Trials_response.keys, Trials_response.corr, Trials_response.rt, Block_Continue.keys, Block_Continue.rt, Image, instructions_1_loop.thisRepN, instructions_1_loop.thisTrialN, instructions_1_loop.thisN, instructions_1_loop.thisIndex, instructions_2_repeat.thisRepN, instructions_2_repeat.thisTrialN, instructions_2_repeat.thisN, instructions_2_repeat.thisIndex, stim, prompt, answer, trials_2.thisRepN, trials_2.thisTrialN, trials_2.thisN, trials_2.thisIndex, stim, prompt, answer, trials.thisRepN, trials.thisTrialN, trials.thisN, trials.thisIndex, participant, date, expName, frameRate
space, 2.4979999999999976, space, 4.675999999999998, , , , , , , , , , , , , , Slide15.JPG, 0, 0, 0, 0, , , , , , , , , , , , , , , , , , , 44376975, Fri Oct 20 2017 09:00:49 GMT-0400 (Eastern Daylight Time), Road_Intersection, 60
, , space, 15.658000000000001, , , , , , , , , , , , , , Slide16.JPG, 0, 1, 1, 1, , , , , , , , , , , , , , , , , , , 44376975, Fri Oct 20 2017 09:00:49 GMT-0400 (Eastern Daylight Time), Road_Intersection, 60
, , space, 6.123000000000005, , , , , , , , , , , , , , Slide17.JPG, 0, 2, 2, 2, , , , , , , , , , , , , , , , , , , 44376975, Fri Oct 20 2017 09:00:49 GMT-0400 (Eastern Daylight Time), Road_Intersection, 60
, , space, 4.5589999999999975, , , , , , , , , , , , , , Slide18.JPG, 0, 3, 3, 3, , , , , , , , , , , , , , , , , , , 44376975, Fri Oct 20 2017 09:00:49 GMT-0400 (Eastern Daylight Time), Road_Intersection, 60
, , space, 15.941000000000003, , , , , , , , , , , , , , Slide19.JPG, 0, 4, 4, 4, , , , , , , , , , , , , , , , , , , 44376975, Fri Oct 20 2017 09:00:49 GMT-0400 (Eastern Daylight Time), Road_Intersection, 60
, , space, 25.042, , , , , , , , , , , , , , Slide20.JPG, 0, 5, 5, 5, , , , , , , , , , , , , , , , , , , 44376975, Fri Oct 20 2017 09:00:49 GMT-0400 (Eastern Daylight Time), Road_Intersection, 60
, , space, 6.206000000000003, , , , , , , , , , , , , , Slide21.JPG, 0, 6, 6, 6, , , , , , , , , , , , , , , , , , , 44376975, Fri Oct 20 2017 09:00:49 GMT-0400 (Eastern Daylight Time), Road_Intersection, 60
, , space, 19.48599999999999, , , , , , , , , , , , , , Slide22.JPG, 0, 7, 7, 7, , , , , , , , , , , , , , , , , , , 44376975, Fri Oct 20 2017 09:00:49 GMT-0400 (Eastern Daylight Time), Road_Intersection, 60
, , space, 8.48599999999999, , , , , , , , , , , , , , Slide23.JPG, 0, 8, 8, 8, , , , , , , , , , , , , , , , , , , 44376975, Fri Oct 20 2017 09:00:49 GMT-0400 (Eastern Daylight Time), Road_Intersection, 60
, , space, 1.5629999999999882, , , , , , , , , , , , , , Slide24.JPG, 0, 9, 9, 9, , , , , , , , , , , , , , , , , , , 44376975, Fri Oct 20 2017 09:00:49 GMT-0400 (Eastern Daylight Time), Road_Intersection, 60
, , space, 5.206999999999994, , , , , , , , , , , , , , Slide25.JPG, 0, 10, 10, 10, , , , , , , , , , , , , , , , , , , 44376975, Fri Oct 20 2017 09:00:49 GMT-0400 (Eastern Daylight Time), Road_Intersection, 60
, , space, 1.0970000000000084, , , , , , , , , , , , , , Slide26.JPG, 0, 11, 11, 11, , , , , , , , , , , , , , , , , , , 44376975, Fri Oct 20 2017 09:00:49 GMT-0400 (Eastern Daylight Time), Road_Intersection, 60
, , space, 2.880000000000024, , , , , , , , , , , , , , Slide27.JPG, 0, 12, 12, 12, , , , , , , , , , , , , , , , , , , 44376975, Fri Oct 20 2017 09:00:49 GMT-0400 (Eastern Daylight Time), Road_Intersection, 60
, , space, 10.484000000000009, , , , , , , , , , , , , , Slide28.JPG, 0, 13, 13, 13, , , , , , , , , , , , , , , , , , , 44376975, Fri Oct 20 2017 09:00:49 GMT-0400 (Eastern Daylight Time), Road_Intersection, 60
, , , , 0, 9.183999999999997, space, 7.556999999999988, right, 1.4279999999999973, , , , , , , , , , , , , , , , , navFarLeft.jpg, Go right., left, 0, 0, 0, 0, navFarLeft.jpg, Go right., left, , , , , 44376975, Fri Oct 20 2017 09:00:49 GMT-0400 (Eastern Daylight Time), Road_Intersection, 60
, , , , , , , , right, 1.6239999999999952, , , , , , , , , , , , , , , , , navNearLeft.jpg, Go away., right, 0, 1, 1, 1, navNearLeft.jpg, Go away., right, , , , , 44376975, Fri Oct 20 2017 09:00:49 GMT-0400 (Eastern Daylight Time), Road_Intersection, 60
, , , , , , , , left, 1.197999999999979, , , , , , , , , , , , , , , , , navFarRight.jpg, Go left., right, 0, 2, 2, 2, navFarRight.jpg, Go left., right, , , , , 44376975, Fri Oct 20 2017 09:00:49 GMT-0400 (Eastern Daylight Time), Road_Intersection, 60
, , , , , , , , right, 1.9279999999999973, , , , , , , , , , , , , , , , , navNearRight.jpg, Go home. , right, 0, 3, 3, 3, navNearRight.jpg, Go home. , right, , , , , 44376975, Fri Oct 20 2017 09:00:49 GMT-0400 (Eastern Daylight Time), Road_Intersection, 60
, , , , , , , , left, 1.282999999999987, , , , , , , , , , , , , , , , , navNearLeft.jpg, Go left., left, 0, 4, 4, 4, navNearLeft.jpg, Go left., left, , , , , 44376975, Fri Oct 20 2017 09:00:49 GMT-0400 (Eastern Daylight Time), Road_Intersection, 60
, , , , , , , , right, 1.046999999999997, , , , , , , , , , , , , , , , , navNearRight.jpg, Go home., right, 0, 5, 5, 5, navNearRight.jpg, Go home., right, , , , , 44376975, Fri Oct 20 2017 09:00:49 GMT-0400 (Eastern Daylight Time), Road_Intersection, 60
, , , , , , , , right, 2.1259999999999764, , , , , , , , , , , , , , , , , navNearLeft.jpg, Go away., right, 0, 6, 6, 6, navNearLeft.jpg, Go away., right, , , , , 44376975, Fri Oct 20 2017 09:00:49 GMT-0400 (Eastern Daylight Time), Road_Intersection, 60
, , , , , , , , left, 1.6799999999999784, , , , , , , , , , , , , , , , , navFarLeft.jpg, Go right., left, 0, 7, 7, 7, navFarLeft.jpg, Go right., left, , , , , 44376975, Fri Oct 20 2017 09:00:49 GMT-0400 (Eastern Daylight Time), Road_Intersection, 60
, , , , , , , , , , space, 4.706999999999994, right, 1, 1.0320000000000107, , , , , , , , , , , , navNearLeft.jpg, Go right. , right, , , , , navNearLeft.jpg, Go right. , right, 0, 0, 0, 14, 44376975, Fri Oct 20 2017 09:00:49 GMT-0400 (Eastern Daylight Time), Road_Intersection, 60
, , , , , , , , , , , , right, 1, 0.8659999999999854, , , , , , , , , , , , navNearRight.jpg, Go right. , right, , , , , navNearRight.jpg, Go right. , right, 0, 1, 1, 15, 44376975, Fri Oct 20 2017 09:00:49 GMT-0400 (Eastern Daylight Time), Road_Intersection, 60
, , , , , , , , , , , , right, 1, 1.5979999999999563, , , , , , , , , , , , navNearLeft.jpg, Go away. , right, , , , , navNearLeft.jpg, Go away. , right, 0, 2, 2, 6, 44376975, Fri Oct 20 2017 09:00:49 GMT-0400 (Eastern Daylight Time), Road_Intersection, 60
, , , , , , , , , , , , left, 1, 1.1830000000000496, , , , , , , , , , , , navFarLeft.jpg, Go right. , left, , , , , navFarLeft.jpg, Go right. , left, 0, 3, 3, 12, 44376975, Fri Oct 20 2017 09:00:49 GMT-0400 (Eastern Daylight Time), Road_Intersection, 60
, , , , , , , , , , , , right, 0, 3.44399999999996, , , , , , , , , , , , navFarRight.jpg, Go away. , left, , , , , navFarRight.jpg, Go away. , left, 0, 4, 4, 5, 44376975, Fri Oct 20 2017 09:00:49 GMT-0400 (Eastern Daylight Time), Road_Intersection, 60
, , , , , , , , , , , , left, 0, 2.1789999999999736, , , , , , , , , , , , navFarLeft.jpg, Go away. , right, , , , , navFarLeft.jpg, Go away. , right, 0, 5, 5, 4, 44376975, Fri Oct 20 2017 09:00:49 GMT-0400 (Eastern Daylight Time), Road_Intersection, 60
, , , , , , , , , , , , right, 0, 1.9799999999999613, , , , , , , , , , , , navFarLeft.jpg, Go home., left, , , , , navFarLeft.jpg, Go home., left, 0, 6, 6, 0, 44376975, Fri Oct 20 2017 09:00:49 GMT-0400 (Eastern Daylight Time), Road_Intersection, 60
, , , , , , , , , , , , left, 1, 3.2099999999999795, , , , , , , , , , , , navNearRight.jpg, Go away. , left, , , , , navNearRight.jpg, Go away. , left, 0, 7, 7, 7, 44376975, Fri Oct 20 2017 09:00:49 GMT-0400 (Eastern Daylight Time), Road_Intersection, 60
, , , , , , , , , , , , left, 0, 1.997000000000014, , , , , , , , , , , , navFarRight.jpg, Go home., right, , , , , navFarRight.jpg, Go home., right, 0, 8, 8, 1, 44376975, Fri Oct 20 2017 09:00:49 GMT-0400 (Eastern Daylight Time), Road_Intersection, 60
, , , , , , , , , , , , left, 1, 1.9459999999999695, , , , , , , , , , , , navNearLeft.jpg, Go home., left, , , , , navNearLeft.jpg, Go home., left, 0, 9, 9, 2, 44376975, Fri Oct 20 2017 09:00:49 GMT-0400 (Eastern Daylight Time), Road_Intersection, 60
, , , , , , , , , , , , left, 1, 1.8799999999999955, , , , , , , , , , , , navNearRight.jpg, Go left. , left, , , , , navNearRight.jpg, Go left. , left, 0, 10, 10, 11, 44376975, Fri Oct 20 2017 09:00:49 GMT-0400 (Eastern Daylight Time), Road_Intersection, 60
, , , , , , , , , , , , left, 1, 1.0980000000000132, , , , , , , , , , , , navNearLeft.jpg, Go left. , left, , , , , navNearLeft.jpg, Go left. , left, 0, 11, 11, 10, 44376975, Fri Oct 20 2017 09:00:49 GMT-0400 (Eastern Daylight Time), Road_Intersection, 60
, , , , , , , , , , , , right, 1, 1.3000000000000114, , , , , , , , , , , , navFarRight.jpg, Go left. , right, , , , , navFarRight.jpg, Go left. , right, 0, 12, 12, 9, 44376975, Fri Oct 20 2017 09:00:49 GMT-0400 (Eastern Daylight Time), Road_Intersection, 60
, , , , , , , , , , , , left, 1, 3.909999999999968, , , , , , , , , , , , navFarRight.jpg, Go right. , left, , , , , navFarRight.jpg, Go right. , left, 0, 13, 13, 13, 44376975, Fri Oct 20 2017 09:00:49 GMT-0400 (Eastern Daylight Time), Road_Intersection, 60
, , , , , , , , , , , , right, 1, 2.5950000000000273, , , , , , , , , , , , navFarLeft.jpg, Go left. , right, , , , , navFarLeft.jpg, Go left. , right, 0, 14, 14, 8, 44376975, Fri Oct 20 2017 09:00:49 GMT-0400 (Eastern Daylight Time), Road_Intersection, 60
, , , , , , , , , , , , right, 1, 1.1829999999999927, , , , , , , , , , , , navNearRight.jpg, Go home., right, , , , , navNearRight.jpg, Go home., right, 0, 15, 15, 3, 44376975, Fri Oct 20 2017 09:00:49 GMT-0400 (Eastern Daylight Time), Road_Intersection, 60
, , , , , , , , , , , , right, 1, 0.7989999999999782, , , , , , , , , , , , navNearRight.jpg, Go home., right, , , , , navNearRight.jpg, Go home., right, 1, 0, 16, 3, 44376975, Fri Oct 20 2017 09:00:49 GMT-0400 (Eastern Daylight Time), Road_Intersection, 60
, , , , , , , , , , , , left, 1, 2.6620000000000346, , , , , , , , , , , , navFarRight.jpg, Go right. , left, , , , , navFarRight.jpg, Go right. , left, 1, 1, 17, 13, 44376975, Fri Oct 20 2017 09:00:49 GMT-0400 (Eastern Daylight Time), Road_Intersection, 60
, , , , , , , , , , , , right, 1, 1.2160000000000082, , , , , , , , , , , , navFarLeft.jpg, Go away. , right, , , , , navFarLeft.jpg, Go away. , right, 1, 2, 18, 4, 44376975, Fri Oct 20 2017 09:00:49 GMT-0400 (Eastern Daylight Time), Road_Intersection, 60
, , , , , , , , , , , , left, 1, 1.794999999999959, , , , , , , , , , , , navNearRight.jpg, Go away. , left, , , , , navNearRight.jpg, Go away. , left, 1, 3, 19, 7, 44376975, Fri Oct 20 2017 09:00:49 GMT-0400 (Eastern Daylight Time), Road_Intersection, 60
, , , , , , , , , , , , right, 1, 1.2090000000000032, , , , , , , , , , , , navNearLeft.jpg, Go away. , right, , , , , navNearLeft.jpg, Go away. , right, 1, 4, 20, 6, 44376975, Fri Oct 20 2017 09:00:49 GMT-0400 (Eastern Daylight Time), Road_Intersection, 60
, , , , , , , , , , , , left, 1, 1.5609999999999786, , , , , , , , , , , , navNearLeft.jpg, Go left. , left, , , , , navNearLeft.jpg, Go left. , left, 1, 5, 21, 10, 44376975, Fri Oct 20 2017 09:00:49 GMT-0400 (Eastern Daylight Time), Road_Intersection, 60
, , , , , , , , , , , , left, 1, 0.66700000000003, , , , , , , , , , , , navNearRight.jpg, Go left. , left, , , , , navNearRight.jpg, Go left. , left, 1, 6, 22, 11, 44376975, Fri Oct 20 2017 09:00:49 GMT-0400 (Eastern Daylight Time), Road_Intersection, 60
, , , , , , , , , , , , right, 1, 0.9809999999999945, , , , , , , , , , , , navFarLeft.jpg, Go left. , right, , , , , navFarLeft.jpg, Go left. , right, 1, 7, 23, 8, 44376975, Fri Oct 20 2017 09:00:49 GMT-0400 (Eastern Daylight Time), Road_Intersection, 60
, , , , , , , , , , , , right, 1, 1.745999999999981, , , , , , , , , , , , navFarRight.jpg, Go home., right, , , , , navFarRight.jpg, Go home., right, 1, 8, 24, 1, 44376975, Fri Oct 20 2017 09:00:49 GMT-0400 (Eastern Daylight Time), Road_Intersection, 60
, , , , , , , , , , , , right, 1, 2.1340000000000146, , , , , , , , , , , , navFarRight.jpg, Go left. , right, , , , , navFarRight.jpg, Go left. , right, 1, 9, 25, 9, 44376975, Fri Oct 20 2017 09:00:49 GMT-0400 (Eastern Daylight Time), Road_Intersection, 60
, , , , , , , , , , , , left, 1, 1.0990000000000464, , , , , , , , , , , , navNearLeft.jpg, Go home., left, , , , , navNearLeft.jpg, Go home., left, 1, 10, 26, 2, 44376975, Fri Oct 20 2017 09:00:49 GMT-0400 (Eastern Daylight Time), Road_Intersection, 60
, , , , , , , , , , , , right, 1, 0.7659999999999627, , , , , , , , , , , , navNearRight.jpg, Go right. , right, , , , , navNearRight.jpg, Go right. , right, 1, 11, 27, 15, 44376975, Fri Oct 20 2017 09:00:49 GMT-0400 (Eastern Daylight Time), Road_Intersection, 60
, , , , , , , , , , , , right, 0, 1.6820000000000164, , , , , , , , , , , , navFarLeft.jpg, Go home., left, , , , , navFarLeft.jpg, Go home., left, 1, 12, 28, 0, 44376975, Fri Oct 20 2017 09:00:49 GMT-0400 (Eastern Daylight Time), Road_Intersection, 60
, , , , , , , , , , , , right, 1, 1.197999999999979, , , , , , , , , , , , navNearLeft.jpg, Go right. , right, , , , , navNearLeft.jpg, Go right. , right, 1, 13, 29, 14, 44376975, Fri Oct 20 2017 09:00:49 GMT-0400 (Eastern Daylight Time), Road_Intersection, 60
, , , , , , , , , , , , left, 1, 1.0990000000000464, , , , , , , , , , , , navFarLeft.jpg, Go right. , left, , , , , navFarLeft.jpg, Go right. , left, 1, 14, 30, 12, 44376975, Fri Oct 20 2017 09:00:49 GMT-0400 (Eastern Daylight Time), Road_Intersection, 60
, , , , , , , , , , , , right, 0, 1.5129999999999768, , , , , , , , , , , , navFarRight.jpg, Go away. , left, , , , , navFarRight.jpg, Go away. , left, 1, 15, 31, 5, 44376975, Fri Oct 20 2017 09:00:49 GMT-0400 (Eastern Daylight Time), Road_Intersection, 60
, , , , , , , , , , , , left, 1, 0.8830000000000382, , , , , , , , , , , , navNearRight.jpg, Go left. , left, , , , , navNearRight.jpg, Go left. , left, 2, 0, 32, 11, 44376975, Fri Oct 20 2017 09:00:49 GMT-0400 (Eastern Daylight Time), Road_Intersection, 60
, , , , , , , , , , , , left, 1, 1.2660000000000196, , , , , , , , , , , , navNearRight.jpg, Go away. , left, , , , , navNearRight.jpg, Go away. , left, 2, 1, 33, 7, 44376975, Fri Oct 20 2017 09:00:49 GMT-0400 (Eastern Daylight Time), Road_Intersection, 60
, , , , , , , , , , , , right, 1, 2.483000000000004, , , , , , , , , , , , navFarLeft.jpg, Go left. , right, , , , , navFarLeft.jpg, Go left. , right, 2, 2, 34, 8, 44376975, Fri Oct 20 2017 09:00:49 GMT-0400 (Eastern Daylight Time), Road_Intersection, 60
, , , , , , , , , , , , right, 1, 1.532000000000039, , , , , , , , , , , , navNearRight.jpg, Go home., right, , , , , navNearRight.jpg, Go home., right, 2, 3, 35, 3, 44376975, Fri Oct 20 2017 09:00:49 GMT-0400 (Eastern Daylight Time), Road_Intersection, 60
, , , , , , , , , , , , left, 0, 1.1809999999999832, , , , , , , , , , , , navFarRight.jpg, Go home., right, , , , , navFarRight.jpg, Go home., right, 2, 4, 36, 1, 44376975, Fri Oct 20 2017 09:00:49 GMT-0400 (Eastern Daylight Time), Road_Intersection, 60
, , , , , , , , , , , , right, 1, 1.5480000000000018, , , , , , , , , , , , navFarRight.jpg, Go left. , right, , , , , navFarRight.jpg, Go left. , right, 2, 5, 37, 9, 44376975, Fri Oct 20 2017 09:00:49 GMT-0400 (Eastern Daylight Time), Road_Intersection, 60
, , , , , , , , , , , , right, 1, 1.2210000000000036, , , , , , , , , , , , navNearLeft.jpg, Go right. , right, , , , , navNearLeft.jpg, Go right. , right, 2, 6, 38, 14, 44376975, Fri Oct 20 2017 09:00:49 GMT-0400 (Eastern Daylight Time), Road_Intersection, 60
, , , , , , , , , , , , right, 0, 1.447999999999979, , , , , , , , , , , , navFarRight.jpg, Go away. , left, , , , , navFarRight.jpg, Go away. , left, 2, 7, 39, 5, 44376975, Fri Oct 20 2017 09:00:49 GMT-0400 (Eastern Daylight Time), Road_Intersection, 60
, , , , , , , , , , , , left, 1, 1.844000000000051, , , , , , , , , , , , navFarRight.jpg, Go right. , left, , , , , navFarRight.jpg, Go right. , left, 2, 8, 40, 13, 44376975, Fri Oct 20 2017 09:00:49 GMT-0400 (Eastern Daylight Time), Road_Intersection, 60
, , , , , , , , , , , , left, 1, 1.747000000000014, , , , , , , , , , , , navNearLeft.jpg, Go left. , left, , , , , navNearLeft.jpg, Go left. , left, 2, 9, 41, 10, 44376975, Fri Oct 20 2017 09:00:49 GMT-0400 (Eastern Daylight Time), Road_Intersection, 60
, , , , , , , , , , , , right, 1, 0.6159999999999854, , , , , , , , , , , , navNearRight.jpg, Go right. , right, , , , , navNearRight.jpg, Go right. , right, 2, 10, 42, 15, 44376975, Fri Oct 20 2017 09:00:49 GMT-0400 (Eastern Daylight Time), Road_Intersection, 60
, , , , , , , , , , , , right, 0, 1.0649999999999977, , , , , , , , , , , , navFarLeft.jpg, Go home., left, , , , , navFarLeft.jpg, Go home., left, 2, 11, 43, 0, 44376975, Fri Oct 20 2017 09:00:49 GMT-0400 (Eastern Daylight Time), Road_Intersection, 60
, , , , , , , , , , , , right, 1, 1.4300000000000068, , , , , , , , , , , , navNearLeft.jpg, Go away. , right, , , , , navNearLeft.jpg, Go away. , right, 2, 12, 44, 6, 44376975, Fri Oct 20 2017 09:00:49 GMT-0400 (Eastern Daylight Time), Road_Intersection, 60
, , , , , , , , , , , , left, 1, 1.4800000000000182, , , , , , , , , , , , navFarLeft.jpg, Go right. , left, , , , , navFarLeft.jpg, Go right. , left, 2, 13, 45, 12, 44376975, Fri Oct 20 2017 09:00:49 GMT-0400 (Eastern Daylight Time), Road_Intersection, 60
, , , , , , , , , , , , right, 1, 1.2479999999999905, , , , , , , , , , , , navFarLeft.jpg, Go away. , right, , , , , navFarLeft.jpg, Go away. , right, 2, 14, 46, 4, 44376975, Fri Oct 20 2017 09:00:49 GMT-0400 (Eastern Daylight Time), Road_Intersection, 60
, , , , , , , , , , , , left, 1, 0.9820000000000277, , , , , , , , , , , , navNearLeft.jpg, Go home., left, , , , , navNearLeft.jpg, Go home., left, 2, 15, 47, 2, 44376975, Fri Oct 20 2017 09:00:49 GMT-0400 (Eastern Daylight Time), Road_Intersection, 60
, , , , , , , , , , , , right, 1, 1.1140000000000327, , , , , , , , , , , , navFarRight.jpg, Go left. , right, , , , , navFarRight.jpg, Go left. , right, 3, 0, 48, 9, 44376975, Fri Oct 20 2017 09:00:49 GMT-0400 (Eastern Daylight Time), Road_Intersection, 60
, , , , , , , , , , , , right, 1, 1.3489999999999895, , , , , , , , , , , , navFarLeft.jpg, Go left. , right, , , , , navFarLeft.jpg, Go left. , right, 3, 1, 49, 8, 44376975, Fri Oct 20 2017 09:00:49 GMT-0400 (Eastern Daylight Time), Road_Intersection, 60
, , , , , , , , , , , , left, 1, 0.8320000000000505, , , , , , , , , , , , navFarLeft.jpg, Go right. , left, , , , , navFarLeft.jpg, Go right. , left, 3, 2, 50, 12, 44376975, Fri Oct 20 2017 09:00:49 GMT-0400 (Eastern Daylight Time), Road_Intersection, 60
, , , , , , , , , , , , left, 1, 0.8980000000000246, , , , , , , , , , , , navNearLeft.jpg, Go left. , left, , , , , navNearLeft.jpg, Go left. , left, 3, 3, 51, 10, 44376975, Fri Oct 20 2017 09:00:49 GMT-0400 (Eastern Daylight Time), Road_Intersection, 60
, , , , , , , , , , , , right, 1, 0.7489999999999668, , , , , , , , , , , , navNearRight.jpg, Go home., right, , , , , navNearRight.jpg, Go home., right, 3, 4, 52, 3, 44376975, Fri Oct 20 2017 09:00:49 GMT-0400 (Eastern Daylight Time), Road_Intersection, 60
, , , , , , , , , , , , right, 0, 1.1309999999999718, , , , , , , , , , , , navFarRight.jpg, Go away. , left, , , , , navFarRight.jpg, Go away. , left, 3, 5, 53, 5, 44376975, Fri Oct 20 2017 09:00:49 GMT-0400 (Eastern Daylight Time), Road_Intersection, 60
, , , , , , , , , , , , left, 0, 2.2789999999999964, , , , , , , , , , , , navNearLeft.jpg, Go away. , right, , , , , navNearLeft.jpg, Go away. , right, 3, 6, 54, 6, 44376975, Fri Oct 20 2017 09:00:49 GMT-0400 (Eastern Daylight Time), Road_Intersection, 60
, , , , , , , , , , , , right, 1, 1.198000000000036, , , , , , , , , , , , navNearRight.jpg, Go right. , right, , , , , navNearRight.jpg, Go right. , right, 3, 7, 55, 15, 44376975, Fri Oct 20 2017 09:00:49 GMT-0400 (Eastern Daylight Time), Road_Intersection, 60
, , , , , , , , , , , , left, 0, 1.214999999999975, , , , , , , , , , , , navFarRight.jpg, Go home., right, , , , , navFarRight.jpg, Go home., right, 3, 8, 56, 1, 44376975, Fri Oct 20 2017 09:00:49 GMT-0400 (Eastern Daylight Time), Road_Intersection, 60
, , , , , , , , , , , , left, 0, 1.8460000000000036, , , , , , , , , , , , navFarLeft.jpg, Go away. , right, , , , , navFarLeft.jpg, Go away. , right, 3, 9, 57, 4, 44376975, Fri Oct 20 2017 09:00:49 GMT-0400 (Eastern Daylight Time), Road_Intersection, 60
, , , , , , , , , , , , left, 1, 0.9480000000000359, , , , , , , , , , , , navNearRight.jpg, Go left. , left, , , , , navNearRight.jpg, Go left. , left, 3, 10, 58, 11, 44376975, Fri Oct 20 2017 09:00:49 GMT-0400 (Eastern Daylight Time), Road_Intersection, 60
, , , , , , , , , , , , left, 1, 0.75, , , , , , , , , , , , navNearLeft.jpg, Go home., left, , , , , navNearLeft.jpg, Go home., left, 3, 11, 59, 2, 44376975, Fri Oct 20 2017 09:00:49 GMT-0400 (Eastern Daylight Time), Road_Intersection, 60
, , , , , , , , , , , , left, 1, 1.2959999999999923, , , , , , , , , , , , navFarRight.jpg, Go right. , left, , , , , navFarRight.jpg, Go right. , left, 3, 12, 60, 13, 44376975, Fri Oct 20 2017 09:00:49 GMT-0400 (Eastern Daylight Time), Road_Intersection, 60
, , , , , , , , , , , , right, 1, 0.8149999999999977, , , , , , , , , , , , navNearLeft.jpg, Go right. , right, , , , , navNearLeft.jpg, Go right. , right, 3, 13, 61, 14, 44376975, Fri Oct 20 2017 09:00:49 GMT-0400 (Eastern Daylight Time), Road_Intersection, 60
, , , , , , , , , , , , left, 1, 1.6639999999999873, , , , , , , , , , , , navNearRight.jpg, Go away. , left, , , , , navNearRight.jpg, Go away. , left, 3, 14, 62, 7, 44376975, Fri Oct 20 2017 09:00:49 GMT-0400 (Eastern Daylight Time), Road_Intersection, 60
, , , , , , , , , , , , right, 0, 1.4639999999999986, , , , , , , , , , , , navFarLeft.jpg, Go home., left, , , , , navFarLeft.jpg, Go home., left, 3, 15, 63, 0, 44376975, Fri Oct 20 2017 09:00:49 GMT-0400 (Eastern Daylight Time), Road_Intersection, 60
