Continue.keys, Continue.rt, instructions_response.keys, instructions_response.rt, repeat_response.keys, repeat_response.rt, key_resp_5.keys, key_resp_5.rt, key_resp_2.keys, key_resp_2.rt, key_resp_4.keys, key_resp_4.rt, Trials_response.keys, Trials_response.corr, Trials_response.rt, Block_Continue.keys, Block_Continue.rt, Image, instructions_1_loop.thisRepN, instructions_1_loop.thisTrialN, instructions_1_loop.thisN, instructions_1_loop.thisIndex, instructions_2_repeat.thisRepN, instructions_2_repeat.thisTrialN, instructions_2_repeat.thisN, instructions_2_repeat.thisIndex, stim, prompt, answer, trials_2.thisRepN, trials_2.thisTrialN, trials_2.thisN, trials_2.thisIndex, stim, prompt, answer, trials.thisRepN, trials.thisTrialN, trials.thisN, trials.thisIndex, participant, date, expName, frameRate
space, 0.3879999999999999, space, 4.115, , , , , , , , , , , , , , Slide15.JPG, 0, 0, 0, 0, , , , , , , , , , , , , , , , , , , 63506070, Wed Nov 15 2017 16:13:35 GMT-0500 (Eastern Standard Time), Road_Intersection, 60
, , space, 7.231, , , , , , , , , , , , , , Slide16.JPG, 0, 1, 1, 1, , , , , , , , , , , , , , , , , , , 63506070, Wed Nov 15 2017 16:13:35 GMT-0500 (Eastern Standard Time), Road_Intersection, 60
, , space, 1.3179999999999978, , , , , , , , , , , , , , Slide17.JPG, 0, 2, 2, 2, , , , , , , , , , , , , , , , , , , 63506070, Wed Nov 15 2017 16:13:35 GMT-0500 (Eastern Standard Time), Road_Intersection, 60
, , space, 0.6649999999999991, , , , , , , , , , , , , , Slide18.JPG, 0, 3, 3, 3, , , , , , , , , , , , , , , , , , , 63506070, Wed Nov 15 2017 16:13:35 GMT-0500 (Eastern Standard Time), Road_Intersection, 60
, , space, 17.656999999999996, , , , , , , , , , , , , , Slide19.JPG, 0, 4, 4, 4, , , , , , , , , , , , , , , , , , , 63506070, Wed Nov 15 2017 16:13:35 GMT-0500 (Eastern Standard Time), Road_Intersection, 60
, , space, 6.283999999999999, , , , , , , , , , , , , , Slide20.JPG, 0, 5, 5, 5, , , , , , , , , , , , , , , , , , , 63506070, Wed Nov 15 2017 16:13:35 GMT-0500 (Eastern Standard Time), Road_Intersection, 60
, , space, 0.8470000000000013, , , , , , , , , , , , , , Slide21.JPG, 0, 6, 6, 6, , , , , , , , , , , , , , , , , , , 63506070, Wed Nov 15 2017 16:13:35 GMT-0500 (Eastern Standard Time), Road_Intersection, 60
, , space, 0.6379999999999981, , , , , , , , , , , , , , Slide22.JPG, 0, 7, 7, 7, , , , , , , , , , , , , , , , , , , 63506070, Wed Nov 15 2017 16:13:35 GMT-0500 (Eastern Standard Time), Road_Intersection, 60
, , space, 0.10099999999999909, , , , , , , , , , , , , , Slide23.JPG, 0, 8, 8, 8, , , , , , , , , , , , , , , , , , , 63506070, Wed Nov 15 2017 16:13:35 GMT-0500 (Eastern Standard Time), Road_Intersection, 60
, , space, 3.053999999999995, , , , , , , , , , , , , , Slide24.JPG, 0, 9, 9, 9, , , , , , , , , , , , , , , , , , , 63506070, Wed Nov 15 2017 16:13:35 GMT-0500 (Eastern Standard Time), Road_Intersection, 60
, , space, 0.03700000000000614, , , , , , , , , , , , , , Slide25.JPG, 0, 10, 10, 10, , , , , , , , , , , , , , , , , , , 63506070, Wed Nov 15 2017 16:13:35 GMT-0500 (Eastern Standard Time), Road_Intersection, 60
, , space, 0.14000000000000057, , , , , , , , , , , , , , Slide26.JPG, 0, 11, 11, 11, , , , , , , , , , , , , , , , , , , 63506070, Wed Nov 15 2017 16:13:35 GMT-0500 (Eastern Standard Time), Road_Intersection, 60
, , space, 0.08200000000000074, , , , , , , , , , , , , , Slide27.JPG, 0, 12, 12, 12, , , , , , , , , , , , , , , , , , , 63506070, Wed Nov 15 2017 16:13:35 GMT-0500 (Eastern Standard Time), Road_Intersection, 60
, , space, 0.6430000000000007, , , , , , , , , , , , , , Slide28.JPG, 0, 13, 13, 13, , , , , , , , , , , , , , , , , , , 63506070, Wed Nov 15 2017 16:13:35 GMT-0500 (Eastern Standard Time), Road_Intersection, 60
, , , , 0, 0.4610000000000056, space, 0.7999999999999972, right, 2.4809999999999945, , , , , , , , , , , , , , , , , navFarLeft.jpg, Go right., left, 0, 0, 0, 0, navFarLeft.jpg, Go right., left, , , , , 63506070, Wed Nov 15 2017 16:13:35 GMT-0500 (Eastern Standard Time), Road_Intersection, 60
, , , , , , , , right, 1.847999999999999, , , , , , , , , , , , , , , , , navNearLeft.jpg, Go away., right, 0, 1, 1, 1, navNearLeft.jpg, Go away., right, , , , , 63506070, Wed Nov 15 2017 16:13:35 GMT-0500 (Eastern Standard Time), Road_Intersection, 60
, , , , , , , , left, 1.0490000000000066, , , , , , , , , , , , , , , , , navFarRight.jpg, Go left., right, 0, 2, 2, 2, navFarRight.jpg, Go left., right, , , , , 63506070, Wed Nov 15 2017 16:13:35 GMT-0500 (Eastern Standard Time), Road_Intersection, 60
, , , , , , , , right, 1.1479999999999961, , , , , , , , , , , , , , , , , navNearRight.jpg, Go home. , right, 0, 3, 3, 3, navNearRight.jpg, Go home. , right, , , , , 63506070, Wed Nov 15 2017 16:13:35 GMT-0500 (Eastern Standard Time), Road_Intersection, 60
, , , , , , , , left, 1.0180000000000007, , , , , , , , , , , , , , , , , navNearLeft.jpg, Go left., left, 0, 4, 4, 4, navNearLeft.jpg, Go left., left, , , , , 63506070, Wed Nov 15 2017 16:13:35 GMT-0500 (Eastern Standard Time), Road_Intersection, 60
, , , , , , , , right, 0.7710000000000008, , , , , , , , , , , , , , , , , navNearRight.jpg, Go home., right, 0, 5, 5, 5, navNearRight.jpg, Go home., right, , , , , 63506070, Wed Nov 15 2017 16:13:35 GMT-0500 (Eastern Standard Time), Road_Intersection, 60
, , , , , , , , right, 1.0670000000000073, , , , , , , , , , , , , , , , , navNearLeft.jpg, Go away., right, 0, 6, 6, 6, navNearLeft.jpg, Go away., right, , , , , 63506070, Wed Nov 15 2017 16:13:35 GMT-0500 (Eastern Standard Time), Road_Intersection, 60
, , , , , , , , right, 1.5500000000000114, , , , , , , , , , , , , , , , , navFarLeft.jpg, Go right., left, 0, 7, 7, 7, navFarLeft.jpg, Go right., left, , , , , 63506070, Wed Nov 15 2017 16:13:35 GMT-0500 (Eastern Standard Time), Road_Intersection, 60
, , , , , , , , , , space, 44.09200000000001, left, 1, 0.6990000000000123, , , , , , , , , , , , navNearLeft.jpg, Go home., left, , , , , navNearLeft.jpg, Go home., left, 0, 0, 0, 2, 63506070, Wed Nov 15 2017 16:13:35 GMT-0500 (Eastern Standard Time), Road_Intersection, 60
, , , , , , , , , , , , left, 1, 0.5840000000000032, , , , , , , , , , , , navNearLeft.jpg, Go left. , left, , , , , navNearLeft.jpg, Go left. , left, 0, 1, 1, 10, 63506070, Wed Nov 15 2017 16:13:35 GMT-0500 (Eastern Standard Time), Road_Intersection, 60
, , , , , , , , , , , , right, 1, 0.7469999999999857, , , , , , , , , , , , navNearLeft.jpg, Go away. , right, , , , , navNearLeft.jpg, Go away. , right, 0, 2, 2, 6, 63506070, Wed Nov 15 2017 16:13:35 GMT-0500 (Eastern Standard Time), Road_Intersection, 60
, , , , , , , , , , , , right, 1, 0.33600000000001273, , , , , , , , , , , , navNearLeft.jpg, Go right. , right, , , , , navNearLeft.jpg, Go right. , right, 0, 3, 3, 14, 63506070, Wed Nov 15 2017 16:13:35 GMT-0500 (Eastern Standard Time), Road_Intersection, 60
, , , , , , , , , , , , right, 0, 1.1949999999999932, , , , , , , , , , , , navFarLeft.jpg, Go home., left, , , , , navFarLeft.jpg, Go home., left, 0, 4, 4, 0, 63506070, Wed Nov 15 2017 16:13:35 GMT-0500 (Eastern Standard Time), Road_Intersection, 60
, , , , , , , , , , , , left, 0, 1.3000000000000114, , , , , , , , , , , , navFarRight.jpg, Go left. , right, , , , , navFarRight.jpg, Go left. , right, 0, 5, 5, 9, 63506070, Wed Nov 15 2017 16:13:35 GMT-0500 (Eastern Standard Time), Road_Intersection, 60
, , , , , , , , , , , , left, 1, 0.7659999999999911, , , , , , , , , , , , navNearRight.jpg, Go left. , left, , , , , navNearRight.jpg, Go left. , left, 0, 6, 6, 11, 63506070, Wed Nov 15 2017 16:13:35 GMT-0500 (Eastern Standard Time), Road_Intersection, 60
, , , , , , , , , , , , left, 1, 1.0010000000000048, , , , , , , , , , , , navNearRight.jpg, Go away. , left, , , , , navNearRight.jpg, Go away. , left, 0, 7, 7, 7, 63506070, Wed Nov 15 2017 16:13:35 GMT-0500 (Eastern Standard Time), Road_Intersection, 60
, , , , , , , , , , , , left, 1, 1.4639999999999986, , , , , , , , , , , , navFarLeft.jpg, Go right. , left, , , , , navFarLeft.jpg, Go right. , left, 0, 8, 8, 12, 63506070, Wed Nov 15 2017 16:13:35 GMT-0500 (Eastern Standard Time), Road_Intersection, 60
, , , , , , , , , , , , left, 0, 1.1289999999999907, , , , , , , , , , , , navFarLeft.jpg, Go away. , right, , , , , navFarLeft.jpg, Go away. , right, 0, 9, 9, 4, 63506070, Wed Nov 15 2017 16:13:35 GMT-0500 (Eastern Standard Time), Road_Intersection, 60
, , , , , , , , , , , , right, 1, 1.0790000000000077, , , , , , , , , , , , navFarRight.jpg, Go home., right, , , , , navFarRight.jpg, Go home., right, 0, 10, 10, 1, 63506070, Wed Nov 15 2017 16:13:35 GMT-0500 (Eastern Standard Time), Road_Intersection, 60
, , , , , , , , , , , , right, 1, 0.5970000000000084, , , , , , , , , , , , navNearRight.jpg, Go right. , right, , , , , navNearRight.jpg, Go right. , right, 0, 11, 11, 15, 63506070, Wed Nov 15 2017 16:13:35 GMT-0500 (Eastern Standard Time), Road_Intersection, 60
, , , , , , , , , , , , right, 1, 1.4159999999999968, , , , , , , , , , , , navFarLeft.jpg, Go left. , right, , , , , navFarLeft.jpg, Go left. , right, 0, 12, 12, 8, 63506070, Wed Nov 15 2017 16:13:35 GMT-0500 (Eastern Standard Time), Road_Intersection, 60
, , , , , , , , , , , , right, 1, 0.6750000000000114, , , , , , , , , , , , navNearRight.jpg, Go home., right, , , , , navNearRight.jpg, Go home., right, 0, 13, 13, 3, 63506070, Wed Nov 15 2017 16:13:35 GMT-0500 (Eastern Standard Time), Road_Intersection, 60
, , , , , , , , , , , , left, 1, 1.1709999999999923, , , , , , , , , , , , navFarRight.jpg, Go right. , left, , , , , navFarRight.jpg, Go right. , left, 0, 14, 14, 13, 63506070, Wed Nov 15 2017 16:13:35 GMT-0500 (Eastern Standard Time), Road_Intersection, 60
, , , , , , , , , , , , right, 0, 1.1869999999999834, , , , , , , , , , , , navFarRight.jpg, Go away. , left, , , , , navFarRight.jpg, Go away. , left, 0, 15, 15, 5, 63506070, Wed Nov 15 2017 16:13:35 GMT-0500 (Eastern Standard Time), Road_Intersection, 60
, , , , , , , , , , , , right, 1, 1.2040000000000077, , , , , , , , , , , , navFarRight.jpg, Go left. , right, , , , , navFarRight.jpg, Go left. , right, 1, 0, 16, 9, 63506070, Wed Nov 15 2017 16:13:35 GMT-0500 (Eastern Standard Time), Road_Intersection, 60
, , , , , , , , , , , , right, 0, 1.5840000000000032, , , , , , , , , , , , navFarRight.jpg, Go away. , left, , , , , navFarRight.jpg, Go away. , left, 1, 1, 17, 5, 63506070, Wed Nov 15 2017 16:13:35 GMT-0500 (Eastern Standard Time), Road_Intersection, 60
, , , , , , , , , , , , left, 1, 0.9379999999999882, , , , , , , , , , , , navNearRight.jpg, Go away. , left, , , , , navNearRight.jpg, Go away. , left, 1, 2, 18, 7, 63506070, Wed Nov 15 2017 16:13:35 GMT-0500 (Eastern Standard Time), Road_Intersection, 60
, , , , , , , , , , , , left, 0, 2.116000000000014, , , , , , , , , , , , navFarRight.jpg, Go home., right, , , , , navFarRight.jpg, Go home., right, 1, 3, 19, 1, 63506070, Wed Nov 15 2017 16:13:35 GMT-0500 (Eastern Standard Time), Road_Intersection, 60
, , , , , , , , , , , , right, 0, 0.8529999999999802, , , , , , , , , , , , navFarLeft.jpg, Go home., left, , , , , navFarLeft.jpg, Go home., left, 1, 4, 20, 0, 63506070, Wed Nov 15 2017 16:13:35 GMT-0500 (Eastern Standard Time), Road_Intersection, 60
, , , , , , , , , , , , right, 1, 0.8670000000000186, , , , , , , , , , , , navNearRight.jpg, Go right. , right, , , , , navNearRight.jpg, Go right. , right, 1, 5, 21, 15, 63506070, Wed Nov 15 2017 16:13:35 GMT-0500 (Eastern Standard Time), Road_Intersection, 60
, , , , , , , , , , , , left, 0, 1.093999999999994, , , , , , , , , , , , navFarLeft.jpg, Go away. , right, , , , , navFarLeft.jpg, Go away. , right, 1, 6, 22, 4, 63506070, Wed Nov 15 2017 16:13:35 GMT-0500 (Eastern Standard Time), Road_Intersection, 60
, , , , , , , , , , , , left, 1, 0.929000000000002, , , , , , , , , , , , navFarLeft.jpg, Go right. , left, , , , , navFarLeft.jpg, Go right. , left, 1, 7, 23, 12, 63506070, Wed Nov 15 2017 16:13:35 GMT-0500 (Eastern Standard Time), Road_Intersection, 60
, , , , , , , , , , , , right, 1, 0.7210000000000036, , , , , , , , , , , , navNearRight.jpg, Go home., right, , , , , navNearRight.jpg, Go home., right, 1, 8, 24, 3, 63506070, Wed Nov 15 2017 16:13:35 GMT-0500 (Eastern Standard Time), Road_Intersection, 60
, , , , , , , , , , , , right, 1, 1.2839999999999918, , , , , , , , , , , , navFarLeft.jpg, Go left. , right, , , , , navFarLeft.jpg, Go left. , right, 1, 9, 25, 8, 63506070, Wed Nov 15 2017 16:13:35 GMT-0500 (Eastern Standard Time), Road_Intersection, 60
, , , , , , , , , , , , left, 1, 0.8620000000000232, , , , , , , , , , , , navNearLeft.jpg, Go home., left, , , , , navNearLeft.jpg, Go home., left, 1, 10, 26, 2, 63506070, Wed Nov 15 2017 16:13:35 GMT-0500 (Eastern Standard Time), Road_Intersection, 60
, , , , , , , , , , , , left, 1, 0.632000000000005, , , , , , , , , , , , navNearRight.jpg, Go left. , left, , , , , navNearRight.jpg, Go left. , left, 1, 11, 27, 11, 63506070, Wed Nov 15 2017 16:13:35 GMT-0500 (Eastern Standard Time), Road_Intersection, 60
, , , , , , , , , , , , left, 1, 0.632000000000005, , , , , , , , , , , , navFarRight.jpg, Go right. , left, , , , , navFarRight.jpg, Go right. , left, 1, 12, 28, 13, 63506070, Wed Nov 15 2017 16:13:35 GMT-0500 (Eastern Standard Time), Road_Intersection, 60
, , , , , , , , , , , , right, 1, 1.0319999999999823, , , , , , , , , , , , navNearLeft.jpg, Go away. , right, , , , , navNearLeft.jpg, Go away. , right, 1, 13, 29, 6, 63506070, Wed Nov 15 2017 16:13:35 GMT-0500 (Eastern Standard Time), Road_Intersection, 60
, , , , , , , , , , , , right, 1, 0.49799999999999045, , , , , , , , , , , , navNearLeft.jpg, Go right. , right, , , , , navNearLeft.jpg, Go right. , right, 1, 14, 30, 14, 63506070, Wed Nov 15 2017 16:13:35 GMT-0500 (Eastern Standard Time), Road_Intersection, 60
, , , , , , , , , , , , left, 1, 0.49500000000000455, , , , , , , , , , , , navNearLeft.jpg, Go left. , left, , , , , navNearLeft.jpg, Go left. , left, 1, 15, 31, 10, 63506070, Wed Nov 15 2017 16:13:35 GMT-0500 (Eastern Standard Time), Road_Intersection, 60
, , , , , , , , , , , , right, 1, 0.632000000000005, , , , , , , , , , , , navNearLeft.jpg, Go away. , right, , , , , navNearLeft.jpg, Go away. , right, 2, 0, 32, 6, 63506070, Wed Nov 15 2017 16:13:35 GMT-0500 (Eastern Standard Time), Road_Intersection, 60
, , , , , , , , , , , , right, 1, 0.5289999999999964, , , , , , , , , , , , navNearRight.jpg, Go right. , right, , , , , navNearRight.jpg, Go right. , right, 2, 1, 33, 15, 63506070, Wed Nov 15 2017 16:13:35 GMT-0500 (Eastern Standard Time), Road_Intersection, 60
, , , , , , , , , , , , right, 0, 0.9010000000000105, , , , , , , , , , , , navFarRight.jpg, Go away. , left, , , , , navFarRight.jpg, Go away. , left, 2, 2, 34, 5, 63506070, Wed Nov 15 2017 16:13:35 GMT-0500 (Eastern Standard Time), Road_Intersection, 60
, , , , , , , , , , , , left, 1, 0.8290000000000077, , , , , , , , , , , , navFarLeft.jpg, Go right. , left, , , , , navFarLeft.jpg, Go right. , left, 2, 3, 35, 12, 63506070, Wed Nov 15 2017 16:13:35 GMT-0500 (Eastern Standard Time), Road_Intersection, 60
, , , , , , , , , , , , left, 0, 0.8670000000000186, , , , , , , , , , , , navFarRight.jpg, Go home., right, , , , , navFarRight.jpg, Go home., right, 2, 4, 36, 1, 63506070, Wed Nov 15 2017 16:13:35 GMT-0500 (Eastern Standard Time), Road_Intersection, 60
, , , , , , , , , , , , left, 1, 0.5330000000000155, , , , , , , , , , , , navNearLeft.jpg, Go home., left, , , , , navNearLeft.jpg, Go home., left, 2, 5, 37, 2, 63506070, Wed Nov 15 2017 16:13:35 GMT-0500 (Eastern Standard Time), Road_Intersection, 60
, , , , , , , , , , , , right, 1, 0.6659999999999968, , , , , , , , , , , , navFarRight.jpg, Go left. , right, , , , , navFarRight.jpg, Go left. , right, 2, 6, 38, 9, 63506070, Wed Nov 15 2017 16:13:35 GMT-0500 (Eastern Standard Time), Road_Intersection, 60
, , , , , , , , , , , , left, 1, 0.9499999999999886, , , , , , , , , , , , navNearRight.jpg, Go away. , left, , , , , navNearRight.jpg, Go away. , left, 2, 7, 39, 7, 63506070, Wed Nov 15 2017 16:13:35 GMT-0500 (Eastern Standard Time), Road_Intersection, 60
, , , , , , , , , , , , left, 0, 0.9049999999999727, , , , , , , , , , , , navFarLeft.jpg, Go away. , right, , , , , navFarLeft.jpg, Go away. , right, 2, 8, 40, 4, 63506070, Wed Nov 15 2017 16:13:35 GMT-0500 (Eastern Standard Time), Road_Intersection, 60
, , , , , , , , , , , , left, 1, 0.9120000000000346, , , , , , , , , , , , navFarRight.jpg, Go right. , left, , , , , navFarRight.jpg, Go right. , left, 2, 9, 41, 13, 63506070, Wed Nov 15 2017 16:13:35 GMT-0500 (Eastern Standard Time), Road_Intersection, 60
, , , , , , , , , , , , right, 1, 0.7939999999999827, , , , , , , , , , , , navFarLeft.jpg, Go left. , right, , , , , navFarLeft.jpg, Go left. , right, 2, 10, 42, 8, 63506070, Wed Nov 15 2017 16:13:35 GMT-0500 (Eastern Standard Time), Road_Intersection, 60
, , , , , , , , , , , , left, 1, 0.5190000000000055, , , , , , , , , , , , navNearRight.jpg, Go left. , left, , , , , navNearRight.jpg, Go left. , left, 2, 11, 43, 11, 63506070, Wed Nov 15 2017 16:13:35 GMT-0500 (Eastern Standard Time), Road_Intersection, 60
, , , , , , , , , , , , right, 1, 0.46500000000003183, , , , , , , , , , , , navNearLeft.jpg, Go right. , right, , , , , navNearLeft.jpg, Go right. , right, 2, 12, 44, 14, 63506070, Wed Nov 15 2017 16:13:35 GMT-0500 (Eastern Standard Time), Road_Intersection, 60
, , , , , , , , , , , , left, 1, 0.54200000000003, , , , , , , , , , , , navNearLeft.jpg, Go left. , left, , , , , navNearLeft.jpg, Go left. , left, 2, 13, 45, 10, 63506070, Wed Nov 15 2017 16:13:35 GMT-0500 (Eastern Standard Time), Road_Intersection, 60
, , , , , , , , , , , , right, 0, 0.9159999999999968, , , , , , , , , , , , navFarLeft.jpg, Go home., left, , , , , navFarLeft.jpg, Go home., left, 2, 14, 46, 0, 63506070, Wed Nov 15 2017 16:13:35 GMT-0500 (Eastern Standard Time), Road_Intersection, 60
, , , , , , , , , , , , left, 0, 0.5930000000000177, , , , , , , , , , , , navNearRight.jpg, Go home., right, , , , , navNearRight.jpg, Go home., right, 2, 15, 47, 3, 63506070, Wed Nov 15 2017 16:13:35 GMT-0500 (Eastern Standard Time), Road_Intersection, 60
, , , , , , , , , , , , right, 1, 0.5160000000000196, , , , , , , , , , , , navNearRight.jpg, Go home., right, , , , , navNearRight.jpg, Go home., right, 3, 0, 48, 3, 63506070, Wed Nov 15 2017 16:13:35 GMT-0500 (Eastern Standard Time), Road_Intersection, 60
, , , , , , , , , , , , right, 0, 0.6279999999999859, , , , , , , , , , , , navFarLeft.jpg, Go home., left, , , , , navFarLeft.jpg, Go home., left, 3, 1, 49, 0, 63506070, Wed Nov 15 2017 16:13:35 GMT-0500 (Eastern Standard Time), Road_Intersection, 60
, , , , , , , , , , , , right, 1, 0.6169999999999618, , , , , , , , , , , , navNearLeft.jpg, Go right. , right, , , , , navNearLeft.jpg, Go right. , right, 3, 2, 50, 14, 63506070, Wed Nov 15 2017 16:13:35 GMT-0500 (Eastern Standard Time), Road_Intersection, 60
, , , , , , , , , , , , right, 0, 0.68100000000004, , , , , , , , , , , , navFarRight.jpg, Go away. , left, , , , , navFarRight.jpg, Go away. , left, 3, 3, 51, 5, 63506070, Wed Nov 15 2017 16:13:35 GMT-0500 (Eastern Standard Time), Road_Intersection, 60
, , , , , , , , , , , , left, 1, 0.5339999999999918, , , , , , , , , , , , navNearLeft.jpg, Go home., left, , , , , navNearLeft.jpg, Go home., left, 3, 4, 52, 2, 63506070, Wed Nov 15 2017 16:13:35 GMT-0500 (Eastern Standard Time), Road_Intersection, 60
, , , , , , , , , , , , left, 0, 0.6989999999999554, , , , , , , , , , , , navFarLeft.jpg, Go away. , right, , , , , navFarLeft.jpg, Go away. , right, 3, 5, 53, 4, 63506070, Wed Nov 15 2017 16:13:35 GMT-0500 (Eastern Standard Time), Road_Intersection, 60
, , , , , , , , , , , , right, 1, 0.6990000000000123, , , , , , , , , , , , navFarRight.jpg, Go left. , right, , , , , navFarRight.jpg, Go left. , right, 3, 6, 54, 9, 63506070, Wed Nov 15 2017 16:13:35 GMT-0500 (Eastern Standard Time), Road_Intersection, 60
, , , , , , , , , , , , left, 1, 0.5610000000000355, , , , , , , , , , , , navNearRight.jpg, Go left. , left, , , , , navNearRight.jpg, Go left. , left, 3, 7, 55, 11, 63506070, Wed Nov 15 2017 16:13:35 GMT-0500 (Eastern Standard Time), Road_Intersection, 60
, , , , , , , , , , , , left, 1, 0.7669999999999959, , , , , , , , , , , , navFarLeft.jpg, Go right. , left, , , , , navFarLeft.jpg, Go right. , left, 3, 8, 56, 12, 63506070, Wed Nov 15 2017 16:13:35 GMT-0500 (Eastern Standard Time), Road_Intersection, 60
, , , , , , , , , , , , right, 0, 0.6850000000000023, , , , , , , , , , , , navNearRight.jpg, Go away. , left, , , , , navNearRight.jpg, Go away. , left, 3, 9, 57, 7, 63506070, Wed Nov 15 2017 16:13:35 GMT-0500 (Eastern Standard Time), Road_Intersection, 60
, , , , , , , , , , , , right, 1, 0.9629999999999654, , , , , , , , , , , , navFarLeft.jpg, Go left. , right, , , , , navFarLeft.jpg, Go left. , right, 3, 10, 58, 8, 63506070, Wed Nov 15 2017 16:13:35 GMT-0500 (Eastern Standard Time), Road_Intersection, 60
, , , , , , , , , , , , left, 1, 0.9150000000000205, , , , , , , , , , , , navNearLeft.jpg, Go left. , left, , , , , navNearLeft.jpg, Go left. , left, 3, 11, 59, 10, 63506070, Wed Nov 15 2017 16:13:35 GMT-0500 (Eastern Standard Time), Road_Intersection, 60
, , , , , , , , , , , , right, 1, 0.6449999999999818, , , , , , , , , , , , navNearLeft.jpg, Go away. , right, , , , , navNearLeft.jpg, Go away. , right, 3, 12, 60, 6, 63506070, Wed Nov 15 2017 16:13:35 GMT-0500 (Eastern Standard Time), Road_Intersection, 60
, , , , , , , , , , , , right, 1, 0.6000000000000227, , , , , , , , , , , , navNearRight.jpg, Go right. , right, , , , , navNearRight.jpg, Go right. , right, 3, 13, 61, 15, 63506070, Wed Nov 15 2017 16:13:35 GMT-0500 (Eastern Standard Time), Road_Intersection, 60
, , , , , , , , , , , , left, 0, 0.8010000000000446, , , , , , , , , , , , navFarRight.jpg, Go home., right, , , , , navFarRight.jpg, Go home., right, 3, 14, 62, 1, 63506070, Wed Nov 15 2017 16:13:35 GMT-0500 (Eastern Standard Time), Road_Intersection, 60
, , , , , , , , , , , , left, 1, 1.4669999999999845, , , , , , , , , , , , navFarRight.jpg, Go right. , left, , , , , navFarRight.jpg, Go right. , left, 3, 15, 63, 13, 63506070, Wed Nov 15 2017 16:13:35 GMT-0500 (Eastern Standard Time), Road_Intersection, 60
