Continue.keys, Continue.rt, instructions_response.keys, instructions_response.rt, repeat_response.keys, repeat_response.rt, key_resp_5.keys, key_resp_5.rt, key_resp_2.keys, key_resp_2.rt, key_resp_4.keys, key_resp_4.rt, Trials_response.keys, Trials_response.corr, Trials_response.rt, Block_Continue.keys, Block_Continue.rt, Image, instructions_1_loop.thisRepN, instructions_1_loop.thisTrialN, instructions_1_loop.thisN, instructions_1_loop.thisIndex, instructions_2_repeat.thisRepN, instructions_2_repeat.thisTrialN, instructions_2_repeat.thisN, instructions_2_repeat.thisIndex, stim, prompt, answer, trials_2.thisRepN, trials_2.thisTrialN, trials_2.thisN, trials_2.thisIndex, stim, prompt, answer, trials.thisRepN, trials.thisTrialN, trials.thisN, trials.thisIndex, participant, date, expName, frameRate
space, 2.583000000000002, space, 6.317, , , , , , , , , , , , , , Slide15.JPG, 0, 0, 0, 0, , , , , , , , , , , , , , , , , , , 90544723, Thu Oct 19 2017 19:42:33 GMT-0400 (EDT), Road_Intersection, 60
, , space, 19.185000000000002, , , , , , , , , , , , , , Slide16.JPG, 0, 1, 1, 1, , , , , , , , , , , , , , , , , , , 90544723, Thu Oct 19 2017 19:42:33 GMT-0400 (EDT), Road_Intersection, 60
, , space, 2.25, , , , , , , , , , , , , , Slide17.JPG, 0, 2, 2, 2, , , , , , , , , , , , , , , , , , , 90544723, Thu Oct 19 2017 19:42:33 GMT-0400 (EDT), Road_Intersection, 60
, , space, 3.7989999999999995, , , , , , , , , , , , , , Slide18.JPG, 0, 3, 3, 3, , , , , , , , , , , , , , , , , , , 90544723, Thu Oct 19 2017 19:42:33 GMT-0400 (EDT), Road_Intersection, 60
, , space, 32.720000000000006, , , , , , , , , , , , , , Slide19.JPG, 0, 4, 4, 4, , , , , , , , , , , , , , , , , , , 90544723, Thu Oct 19 2017 19:42:33 GMT-0400 (EDT), Road_Intersection, 60
, , space, 31.769999999999996, , , , , , , , , , , , , , Slide20.JPG, 0, 5, 5, 5, , , , , , , , , , , , , , , , , , , 90544723, Thu Oct 19 2017 19:42:33 GMT-0400 (EDT), Road_Intersection, 60
, , space, 2.8840000000000003, , , , , , , , , , , , , , Slide21.JPG, 0, 6, 6, 6, , , , , , , , , , , , , , , , , , , 90544723, Thu Oct 19 2017 19:42:33 GMT-0400 (EDT), Road_Intersection, 60
, , space, 4.51700000000001, , , , , , , , , , , , , , Slide22.JPG, 0, 7, 7, 7, , , , , , , , , , , , , , , , , , , 90544723, Thu Oct 19 2017 19:42:33 GMT-0400 (EDT), Road_Intersection, 60
, , space, 4.783999999999992, , , , , , , , , , , , , , Slide23.JPG, 0, 8, 8, 8, , , , , , , , , , , , , , , , , , , 90544723, Thu Oct 19 2017 19:42:33 GMT-0400 (EDT), Road_Intersection, 60
, , space, 1.7839999999999918, , , , , , , , , , , , , , Slide24.JPG, 0, 9, 9, 9, , , , , , , , , , , , , , , , , , , 90544723, Thu Oct 19 2017 19:42:33 GMT-0400 (EDT), Road_Intersection, 60
, , space, 1.6659999999999968, , , , , , , , , , , , , , Slide25.JPG, 0, 10, 10, 10, , , , , , , , , , , , , , , , , , , 90544723, Thu Oct 19 2017 19:42:33 GMT-0400 (EDT), Road_Intersection, 60
, , space, 2.6499999999999773, , , , , , , , , , , , , , Slide26.JPG, 0, 11, 11, 11, , , , , , , , , , , , , , , , , , , 90544723, Thu Oct 19 2017 19:42:33 GMT-0400 (EDT), Road_Intersection, 60
, , space, 1.6169999999999902, , , , , , , , , , , , , , Slide27.JPG, 0, 12, 12, 12, , , , , , , , , , , , , , , , , , , 90544723, Thu Oct 19 2017 19:42:33 GMT-0400 (EDT), Road_Intersection, 60
, , space, 2.9329999999999927, , , , , , , , , , , , , , Slide28.JPG, 0, 13, 13, 13, , , , , , , , , , , , , , , , , , , 90544723, Thu Oct 19 2017 19:42:33 GMT-0400 (EDT), Road_Intersection, 60
, , , , 0, 10.835000000000008, space, 3.516999999999996, left, 1.8479999999999848, , , , , , , , , , , , , , , , , navFarLeft.jpg, Go right., left, 0, 0, 0, 0, navFarLeft.jpg, Go right., left, , , , , 90544723, Thu Oct 19 2017 19:42:33 GMT-0400 (EDT), Road_Intersection, 60
, , , , , , , , right, 1.3480000000000132, , , , , , , , , , , , , , , , , navNearLeft.jpg, Go away., right, 0, 1, 1, 1, navNearLeft.jpg, Go away., right, , , , , 90544723, Thu Oct 19 2017 19:42:33 GMT-0400 (EDT), Road_Intersection, 60
, , , , , , , , right, 1.582000000000022, , , , , , , , , , , , , , , , , navFarRight.jpg, Go left., right, 0, 2, 2, 2, navFarRight.jpg, Go left., right, , , , , 90544723, Thu Oct 19 2017 19:42:33 GMT-0400 (EDT), Road_Intersection, 60
, , , , , , , , right, 0.6630000000000109, , , , , , , , , , , , , , , , , navNearRight.jpg, Go home. , right, 0, 3, 3, 3, navNearRight.jpg, Go home. , right, , , , , 90544723, Thu Oct 19 2017 19:42:33 GMT-0400 (EDT), Road_Intersection, 60
, , , , , , , , left, 0.6990000000000123, , , , , , , , , , , , , , , , , navNearLeft.jpg, Go left., left, 0, 4, 4, 4, navNearLeft.jpg, Go left., left, , , , , 90544723, Thu Oct 19 2017 19:42:33 GMT-0400 (EDT), Road_Intersection, 60
, , , , , , , , right, 0.6319999999999766, , , , , , , , , , , , , , , , , navNearRight.jpg, Go home., right, 0, 5, 5, 5, navNearRight.jpg, Go home., right, , , , , 90544723, Thu Oct 19 2017 19:42:33 GMT-0400 (EDT), Road_Intersection, 60
, , , , , , , , right, 0.8489999999999895, , , , , , , , , , , , , , , , , navNearLeft.jpg, Go away., right, 0, 6, 6, 6, navNearLeft.jpg, Go away., right, , , , , 90544723, Thu Oct 19 2017 19:42:33 GMT-0400 (EDT), Road_Intersection, 60
, , , , , , , , left, 1.2990000000000066, , , , , , , , , , , , , , , , , navFarLeft.jpg, Go right., left, 0, 7, 7, 7, navFarLeft.jpg, Go right., left, , , , , 90544723, Thu Oct 19 2017 19:42:33 GMT-0400 (EDT), Road_Intersection, 60
, , , , , , , , , , space, 5.6159999999999854, left, 1, 0.6330000000000098, , , , , , , , , , , , navNearRight.jpg, Go left. , left, , , , , navNearRight.jpg, Go left. , left, 0, 0, 0, 11, 90544723, Thu Oct 19 2017 19:42:33 GMT-0400 (EDT), Road_Intersection, 60
, , , , , , , , , , , , right, 1, 0.6160000000000139, , , , , , , , , , , , navNearLeft.jpg, Go right. , right, , , , , navNearLeft.jpg, Go right. , right, 0, 1, 1, 14, 90544723, Thu Oct 19 2017 19:42:33 GMT-0400 (EDT), Road_Intersection, 60
, , , , , , , , , , , , right, 1, 0.46700000000001296, , , , , , , , , , , , navNearRight.jpg, Go home., right, , , , , navNearRight.jpg, Go home., right, 0, 2, 2, 3, 90544723, Thu Oct 19 2017 19:42:33 GMT-0400 (EDT), Road_Intersection, 60
, , , , , , , , , , , , left, 1, 0.46699999999998454, , , , , , , , , , , , navNearLeft.jpg, Go home., left, , , , , navNearLeft.jpg, Go home., left, 0, 3, 3, 2, 90544723, Thu Oct 19 2017 19:42:33 GMT-0400 (EDT), Road_Intersection, 60
, , , , , , , , , , , , left, 1, 0.75, , , , , , , , , , , , navNearLeft.jpg, Go left. , left, , , , , navNearLeft.jpg, Go left. , left, 0, 4, 4, 10, 90544723, Thu Oct 19 2017 19:42:33 GMT-0400 (EDT), Road_Intersection, 60
, , , , , , , , , , , , right, 1, 0.5840000000000032, , , , , , , , , , , , navNearLeft.jpg, Go away. , right, , , , , navNearLeft.jpg, Go away. , right, 0, 5, 5, 6, 90544723, Thu Oct 19 2017 19:42:33 GMT-0400 (EDT), Road_Intersection, 60
, , , , , , , , , , , , left, 1, 1.0330000000000155, , , , , , , , , , , , navFarRight.jpg, Go right. , left, , , , , navFarRight.jpg, Go right. , left, 0, 6, 6, 13, 90544723, Thu Oct 19 2017 19:42:33 GMT-0400 (EDT), Road_Intersection, 60
, , , , , , , , , , , , left, 0, 0.6659999999999968, , , , , , , , , , , , navFarLeft.jpg, Go away. , right, , , , , navFarLeft.jpg, Go away. , right, 0, 7, 7, 4, 90544723, Thu Oct 19 2017 19:42:33 GMT-0400 (EDT), Road_Intersection, 60
, , , , , , , , , , , , right, 1, 0.7669999999999959, , , , , , , , , , , , navNearRight.jpg, Go right. , right, , , , , navNearRight.jpg, Go right. , right, 0, 8, 8, 15, 90544723, Thu Oct 19 2017 19:42:33 GMT-0400 (EDT), Road_Intersection, 60
, , , , , , , , , , , , left, 1, 0.6670000000000016, , , , , , , , , , , , navNearRight.jpg, Go away. , left, , , , , navNearRight.jpg, Go away. , left, 0, 9, 9, 7, 90544723, Thu Oct 19 2017 19:42:33 GMT-0400 (EDT), Road_Intersection, 60
, , , , , , , , , , , , right, 1, 0.8839999999999861, , , , , , , , , , , , navFarLeft.jpg, Go left. , right, , , , , navFarLeft.jpg, Go left. , right, 0, 10, 10, 8, 90544723, Thu Oct 19 2017 19:42:33 GMT-0400 (EDT), Road_Intersection, 60
, , , , , , , , , , , , left, 1, 0.5999999999999659, , , , , , , , , , , , navFarRight.jpg, Go away. , left, , , , , navFarRight.jpg, Go away. , left, 0, 11, 11, 5, 90544723, Thu Oct 19 2017 19:42:33 GMT-0400 (EDT), Road_Intersection, 60
, , , , , , , , , , , , right, 1, 1.516999999999996, , , , , , , , , , , , navFarRight.jpg, Go left. , right, , , , , navFarRight.jpg, Go left. , right, 0, 12, 12, 9, 90544723, Thu Oct 19 2017 19:42:33 GMT-0400 (EDT), Road_Intersection, 60
, , , , , , , , , , , , right, 1, 0.66700000000003, , , , , , , , , , , , navFarRight.jpg, Go home., right, , , , , navFarRight.jpg, Go home., right, 0, 13, 13, 1, 90544723, Thu Oct 19 2017 19:42:33 GMT-0400 (EDT), Road_Intersection, 60
, , , , , , , , , , , , left, 1, 0.6999999999999886, , , , , , , , , , , , navFarLeft.jpg, Go home., left, , , , , navFarLeft.jpg, Go home., left, 0, 14, 14, 0, 90544723, Thu Oct 19 2017 19:42:33 GMT-0400 (EDT), Road_Intersection, 60
, , , , , , , , , , , , left, 1, 1.1160000000000423, , , , , , , , , , , , navFarLeft.jpg, Go right. , left, , , , , navFarLeft.jpg, Go right. , left, 0, 15, 15, 12, 90544723, Thu Oct 19 2017 19:42:33 GMT-0400 (EDT), Road_Intersection, 60
, , , , , , , , , , , , right, 1, 0.8659999999999854, , , , , , , , , , , , navNearLeft.jpg, Go right. , right, , , , , navNearLeft.jpg, Go right. , right, 1, 0, 16, 14, 90544723, Thu Oct 19 2017 19:42:33 GMT-0400 (EDT), Road_Intersection, 60
, , , , , , , , , , , , right, 1, 0.9499999999999886, , , , , , , , , , , , navFarRight.jpg, Go left. , right, , , , , navFarRight.jpg, Go left. , right, 1, 1, 17, 9, 90544723, Thu Oct 19 2017 19:42:33 GMT-0400 (EDT), Road_Intersection, 60
, , , , , , , , , , , , left, 1, 0.6999999999999886, , , , , , , , , , , , navFarLeft.jpg, Go home., left, , , , , navFarLeft.jpg, Go home., left, 1, 2, 18, 0, 90544723, Thu Oct 19 2017 19:42:33 GMT-0400 (EDT), Road_Intersection, 60
, , , , , , , , , , , , right, 1, 0.7010000000000218, , , , , , , , , , , , navFarLeft.jpg, Go left. , right, , , , , navFarLeft.jpg, Go left. , right, 1, 3, 19, 8, 90544723, Thu Oct 19 2017 19:42:33 GMT-0400 (EDT), Road_Intersection, 60
, , , , , , , , , , , , left, 1, 0.7520000000000095, , , , , , , , , , , , navNearRight.jpg, Go left. , left, , , , , navNearRight.jpg, Go left. , left, 1, 4, 20, 11, 90544723, Thu Oct 19 2017 19:42:33 GMT-0400 (EDT), Road_Intersection, 60
, , , , , , , , , , , , left, 1, 0.6329999999999814, , , , , , , , , , , , navNearLeft.jpg, Go home., left, , , , , navNearLeft.jpg, Go home., left, 1, 5, 21, 2, 90544723, Thu Oct 19 2017 19:42:33 GMT-0400 (EDT), Road_Intersection, 60
, , , , , , , , , , , , left, 1, 1.1160000000000423, , , , , , , , , , , , navFarLeft.jpg, Go right. , left, , , , , navFarLeft.jpg, Go right. , left, 1, 6, 22, 12, 90544723, Thu Oct 19 2017 19:42:33 GMT-0400 (EDT), Road_Intersection, 60
, , , , , , , , , , , , right, 1, 0.6339999999999577, , , , , , , , , , , , navFarRight.jpg, Go home., right, , , , , navFarRight.jpg, Go home., right, 1, 7, 23, 1, 90544723, Thu Oct 19 2017 19:42:33 GMT-0400 (EDT), Road_Intersection, 60
, , , , , , , , , , , , right, 1, 0.632000000000005, , , , , , , , , , , , navNearRight.jpg, Go right. , right, , , , , navNearRight.jpg, Go right. , right, 1, 8, 24, 15, 90544723, Thu Oct 19 2017 19:42:33 GMT-0400 (EDT), Road_Intersection, 60
, , , , , , , , , , , , right, 1, 0.5329999999999586, , , , , , , , , , , , navNearRight.jpg, Go home., right, , , , , navNearRight.jpg, Go home., right, 1, 9, 25, 3, 90544723, Thu Oct 19 2017 19:42:33 GMT-0400 (EDT), Road_Intersection, 60
, , , , , , , , , , , , left, 1, 0.6999999999999886, , , , , , , , , , , , navNearRight.jpg, Go away. , left, , , , , navNearRight.jpg, Go away. , left, 1, 10, 26, 7, 90544723, Thu Oct 19 2017 19:42:33 GMT-0400 (EDT), Road_Intersection, 60
, , , , , , , , , , , , left, 1, 1.0319999999999823, , , , , , , , , , , , navFarRight.jpg, Go away. , left, , , , , navFarRight.jpg, Go away. , left, 1, 11, 27, 5, 90544723, Thu Oct 19 2017 19:42:33 GMT-0400 (EDT), Road_Intersection, 60
, , , , , , , , , , , , right, 1, 0.5840000000000032, , , , , , , , , , , , navNearLeft.jpg, Go away. , right, , , , , navNearLeft.jpg, Go away. , right, 1, 12, 28, 6, 90544723, Thu Oct 19 2017 19:42:33 GMT-0400 (EDT), Road_Intersection, 60
, , , , , , , , , , , , right, 1, 0.6170000000000186, , , , , , , , , , , , navFarLeft.jpg, Go away. , right, , , , , navFarLeft.jpg, Go away. , right, 1, 13, 29, 4, 90544723, Thu Oct 19 2017 19:42:33 GMT-0400 (EDT), Road_Intersection, 60
, , , , , , , , , , , , left, 1, 0.6989999999999554, , , , , , , , , , , , navNearLeft.jpg, Go left. , left, , , , , navNearLeft.jpg, Go left. , left, 1, 14, 30, 10, 90544723, Thu Oct 19 2017 19:42:33 GMT-0400 (EDT), Road_Intersection, 60
, , , , , , , , , , , , left, 1, 0.700999999999965, , , , , , , , , , , , navFarRight.jpg, Go right. , left, , , , , navFarRight.jpg, Go right. , left, 1, 15, 31, 13, 90544723, Thu Oct 19 2017 19:42:33 GMT-0400 (EDT), Road_Intersection, 60
, , , , , , , , , , , , left, 1, 0.5830000000000268, , , , , , , , , , , , navNearLeft.jpg, Go left. , left, , , , , navNearLeft.jpg, Go left. , left, 2, 0, 32, 10, 90544723, Thu Oct 19 2017 19:42:33 GMT-0400 (EDT), Road_Intersection, 60
, , , , , , , , , , , , right, 1, 0.5999999999999659, , , , , , , , , , , , navFarRight.jpg, Go home., right, , , , , navFarRight.jpg, Go home., right, 2, 1, 33, 1, 90544723, Thu Oct 19 2017 19:42:33 GMT-0400 (EDT), Road_Intersection, 60
, , , , , , , , , , , , right, 1, 0.6499999999999773, , , , , , , , , , , , navNearRight.jpg, Go home., right, , , , , navNearRight.jpg, Go home., right, 2, 2, 34, 3, 90544723, Thu Oct 19 2017 19:42:33 GMT-0400 (EDT), Road_Intersection, 60
, , , , , , , , , , , , left, 1, 0.7669999999999959, , , , , , , , , , , , navFarRight.jpg, Go right. , left, , , , , navFarRight.jpg, Go right. , left, 2, 3, 35, 13, 90544723, Thu Oct 19 2017 19:42:33 GMT-0400 (EDT), Road_Intersection, 60
, , , , , , , , , , , , right, 1, 1.7000000000000455, , , , , , , , , , , , navFarLeft.jpg, Go left. , right, , , , , navFarLeft.jpg, Go left. , right, 2, 4, 36, 8, 90544723, Thu Oct 19 2017 19:42:33 GMT-0400 (EDT), Road_Intersection, 60
, , , , , , , , , , , , left, 1, 0.8499999999999659, , , , , , , , , , , , navNearRight.jpg, Go left. , left, , , , , navNearRight.jpg, Go left. , left, 2, 5, 37, 11, 90544723, Thu Oct 19 2017 19:42:33 GMT-0400 (EDT), Road_Intersection, 60
, , , , , , , , , , , , right, 1, 0.6840000000000259, , , , , , , , , , , , navNearLeft.jpg, Go away. , right, , , , , navNearLeft.jpg, Go away. , right, 2, 6, 38, 6, 90544723, Thu Oct 19 2017 19:42:33 GMT-0400 (EDT), Road_Intersection, 60
, , , , , , , , , , , , right, 1, 0.6999999999999886, , , , , , , , , , , , navNearLeft.jpg, Go right. , right, , , , , navNearLeft.jpg, Go right. , right, 2, 7, 39, 14, 90544723, Thu Oct 19 2017 19:42:33 GMT-0400 (EDT), Road_Intersection, 60
, , , , , , , , , , , , left, 1, 1.6000000000000227, , , , , , , , , , , , navFarLeft.jpg, Go right. , left, , , , , navFarLeft.jpg, Go right. , left, 2, 8, 40, 12, 90544723, Thu Oct 19 2017 19:42:33 GMT-0400 (EDT), Road_Intersection, 60
, , , , , , , , , , , , left, 1, 0.6999999999999886, , , , , , , , , , , , navNearRight.jpg, Go away. , left, , , , , navNearRight.jpg, Go away. , left, 2, 9, 41, 7, 90544723, Thu Oct 19 2017 19:42:33 GMT-0400 (EDT), Road_Intersection, 60
, , , , , , , , , , , , right, 1, 0.6329999999999814, , , , , , , , , , , , navNearRight.jpg, Go right. , right, , , , , navNearRight.jpg, Go right. , right, 2, 10, 42, 15, 90544723, Thu Oct 19 2017 19:42:33 GMT-0400 (EDT), Road_Intersection, 60
, , , , , , , , , , , , right, 1, 0.8990000000000009, , , , , , , , , , , , navFarRight.jpg, Go left. , right, , , , , navFarRight.jpg, Go left. , right, 2, 11, 43, 9, 90544723, Thu Oct 19 2017 19:42:33 GMT-0400 (EDT), Road_Intersection, 60
, , , , , , , , , , , , left, 1, 0.8500000000000227, , , , , , , , , , , , navFarRight.jpg, Go away. , left, , , , , navFarRight.jpg, Go away. , left, 2, 12, 44, 5, 90544723, Thu Oct 19 2017 19:42:33 GMT-0400 (EDT), Road_Intersection, 60
, , , , , , , , , , , , left, 1, 0.6340000000000146, , , , , , , , , , , , navFarLeft.jpg, Go home., left, , , , , navFarLeft.jpg, Go home., left, 2, 13, 45, 0, 90544723, Thu Oct 19 2017 19:42:33 GMT-0400 (EDT), Road_Intersection, 60
, , , , , , , , , , , , left, 1, 0.6669999999999732, , , , , , , , , , , , navNearLeft.jpg, Go home., left, , , , , navNearLeft.jpg, Go home., left, 2, 14, 46, 2, 90544723, Thu Oct 19 2017 19:42:33 GMT-0400 (EDT), Road_Intersection, 60
, , , , , , , , , , , , right, 1, 0.7330000000000041, , , , , , , , , , , , navFarLeft.jpg, Go away. , right, , , , , navFarLeft.jpg, Go away. , right, 2, 15, 47, 4, 90544723, Thu Oct 19 2017 19:42:33 GMT-0400 (EDT), Road_Intersection, 60
, , , , , , , , , , , , right, 1, 0.6160000000000423, , , , , , , , , , , , navFarRight.jpg, Go left. , right, , , , , navFarRight.jpg, Go left. , right, 3, 0, 48, 9, 90544723, Thu Oct 19 2017 19:42:33 GMT-0400 (EDT), Road_Intersection, 60
, , , , , , , , , , , , right, 1, 0.6829999999999927, , , , , , , , , , , , navNearRight.jpg, Go home., right, , , , , navNearRight.jpg, Go home., right, 3, 1, 49, 3, 90544723, Thu Oct 19 2017 19:42:33 GMT-0400 (EDT), Road_Intersection, 60
, , , , , , , , , , , , left, 1, 0.8330000000000268, , , , , , , , , , , , navFarRight.jpg, Go right. , left, , , , , navFarRight.jpg, Go right. , left, 3, 2, 50, 13, 90544723, Thu Oct 19 2017 19:42:33 GMT-0400 (EDT), Road_Intersection, 60
, , , , , , , , , , , , right, 1, 0.5830000000000268, , , , , , , , , , , , navFarRight.jpg, Go home., right, , , , , navFarRight.jpg, Go home., right, 3, 3, 51, 1, 90544723, Thu Oct 19 2017 19:42:33 GMT-0400 (EDT), Road_Intersection, 60
, , , , , , , , , , , , right, 1, 0.5500000000000114, , , , , , , , , , , , navFarLeft.jpg, Go away. , right, , , , , navFarLeft.jpg, Go away. , right, 3, 4, 52, 4, 90544723, Thu Oct 19 2017 19:42:33 GMT-0400 (EDT), Road_Intersection, 60
, , , , , , , , , , , , left, 1, 0.5670000000000073, , , , , , , , , , , , navNearLeft.jpg, Go home., left, , , , , navNearLeft.jpg, Go home., left, 3, 5, 53, 2, 90544723, Thu Oct 19 2017 19:42:33 GMT-0400 (EDT), Road_Intersection, 60
, , , , , , , , , , , , left, 1, 0.5840000000000032, , , , , , , , , , , , navNearRight.jpg, Go away. , left, , , , , navNearRight.jpg, Go away. , left, 3, 6, 54, 7, 90544723, Thu Oct 19 2017 19:42:33 GMT-0400 (EDT), Road_Intersection, 60
, , , , , , , , , , , , right, 1, 0.6159999999999854, , , , , , , , , , , , navNearLeft.jpg, Go right. , right, , , , , navNearLeft.jpg, Go right. , right, 3, 7, 55, 14, 90544723, Thu Oct 19 2017 19:42:33 GMT-0400 (EDT), Road_Intersection, 60
, , , , , , , , , , , , left, 1, 0.6500000000000341, , , , , , , , , , , , navFarLeft.jpg, Go home., left, , , , , navFarLeft.jpg, Go home., left, 3, 8, 56, 0, 90544723, Thu Oct 19 2017 19:42:33 GMT-0400 (EDT), Road_Intersection, 60
, , , , , , , , , , , , left, 1, 0.6669999999999732, , , , , , , , , , , , navNearLeft.jpg, Go left. , left, , , , , navNearLeft.jpg, Go left. , left, 3, 9, 57, 10, 90544723, Thu Oct 19 2017 19:42:33 GMT-0400 (EDT), Road_Intersection, 60
, , , , , , , , , , , , right, 1, 0.5830000000000268, , , , , , , , , , , , navNearLeft.jpg, Go away. , right, , , , , navNearLeft.jpg, Go away. , right, 3, 10, 58, 6, 90544723, Thu Oct 19 2017 19:42:33 GMT-0400 (EDT), Road_Intersection, 60
, , , , , , , , , , , , right, 1, 0.7999999999999545, , , , , , , , , , , , navFarLeft.jpg, Go left. , right, , , , , navFarLeft.jpg, Go left. , right, 3, 11, 59, 8, 90544723, Thu Oct 19 2017 19:42:33 GMT-0400 (EDT), Road_Intersection, 60
, , , , , , , , , , , , right, 1, 0.5849999999999795, , , , , , , , , , , , navNearRight.jpg, Go right. , right, , , , , navNearRight.jpg, Go right. , right, 3, 12, 60, 15, 90544723, Thu Oct 19 2017 19:42:33 GMT-0400 (EDT), Road_Intersection, 60
, , , , , , , , , , , , left, 1, 0.6660000000000537, , , , , , , , , , , , navFarRight.jpg, Go away. , left, , , , , navFarRight.jpg, Go away. , left, 3, 13, 61, 5, 90544723, Thu Oct 19 2017 19:42:33 GMT-0400 (EDT), Road_Intersection, 60
, , , , , , , , , , , , left, 1, 0.5489999999999782, , , , , , , , , , , , navNearRight.jpg, Go left. , left, , , , , navNearRight.jpg, Go left. , left, 3, 14, 62, 11, 90544723, Thu Oct 19 2017 19:42:33 GMT-0400 (EDT), Road_Intersection, 60
, , , , , , , , , , , , left, 1, 0.7169999999999845, , , , , , , , , , , , navFarLeft.jpg, Go right. , left, , , , , navFarLeft.jpg, Go right. , left, 3, 15, 63, 12, 90544723, Thu Oct 19 2017 19:42:33 GMT-0400 (EDT), Road_Intersection, 60
