Continue.keys, Continue.rt, instructions_response.keys, instructions_response.rt, repeat_response.keys, repeat_response.rt, key_resp_5.keys, key_resp_5.rt, key_resp_2.keys, key_resp_2.rt, key_resp_4.keys, key_resp_4.rt, Trials_response.keys, Trials_response.corr, Trials_response.rt, Block_Continue.keys, Block_Continue.rt, Image, instructions_1_loop.thisRepN, instructions_1_loop.thisTrialN, instructions_1_loop.thisN, instructions_1_loop.thisIndex, instructions_2_repeat.thisRepN, instructions_2_repeat.thisTrialN, instructions_2_repeat.thisN, instructions_2_repeat.thisIndex, stim, prompt, answer, trials_2.thisRepN, trials_2.thisTrialN, trials_2.thisN, trials_2.thisIndex, stim, prompt, answer, trials.thisRepN, trials.thisTrialN, trials.thisN, trials.thisIndex, participant, date, expName, frameRate
space, 0.7829999999999995, space, 3.785000000000001, , , , , , , , , , , , , , Slide1.JPG, 0, 0, 0, 0, , , , , , , , , , , , , , , , , , , 15636701, Wed Aug 16 2017 18:06:19 GMT-0400 (Eastern Standard Time), Ultimate_Frisbee, 60
, , space, 8.917, , , , , , , , , , , , , , Slide2.JPG, 0, 1, 1, 1, , , , , , , , , , , , , , , , , , , 15636701, Wed Aug 16 2017 18:06:19 GMT-0400 (Eastern Standard Time), Ultimate_Frisbee, 60
, , space, 6.933, , , , , , , , , , , , , , Slide3.JPG, 0, 2, 2, 2, , , , , , , , , , , , , , , , , , , 15636701, Wed Aug 16 2017 18:06:19 GMT-0400 (Eastern Standard Time), Ultimate_Frisbee, 60
, , space, 0.7149999999999999, , , , , , , , , , , , , , Slide4.JPG, 0, 3, 3, 3, , , , , , , , , , , , , , , , , , , 15636701, Wed Aug 16 2017 18:06:19 GMT-0400 (Eastern Standard Time), Ultimate_Frisbee, 60
, , space, 5.731999999999999, , , , , , , , , , , , , , Slide5.JPG, 0, 4, 4, 4, , , , , , , , , , , , , , , , , , , 15636701, Wed Aug 16 2017 18:06:19 GMT-0400 (Eastern Standard Time), Ultimate_Frisbee, 60
, , space, 4.6839999999999975, , , , , , , , , , , , , , Slide6.JPG, 0, 5, 5, 5, , , , , , , , , , , , , , , , , , , 15636701, Wed Aug 16 2017 18:06:19 GMT-0400 (Eastern Standard Time), Ultimate_Frisbee, 60
, , space, 0.9010000000000034, , , , , , , , , , , , , , Slide7.JPG, 0, 6, 6, 6, , , , , , , , , , , , , , , , , , , 15636701, Wed Aug 16 2017 18:06:19 GMT-0400 (Eastern Standard Time), Ultimate_Frisbee, 60
, , space, 5.332999999999998, , , , , , , , , , , , , , Slide8.JPG, 0, 7, 7, 7, , , , , , , , , , , , , , , , , , , 15636701, Wed Aug 16 2017 18:06:19 GMT-0400 (Eastern Standard Time), Ultimate_Frisbee, 60
, , space, 22.865000000000002, , , , , , , , , , , , , , Slide9.JPG, 0, 8, 8, 8, , , , , , , , , , , , , , , , , , , 15636701, Wed Aug 16 2017 18:06:19 GMT-0400 (Eastern Standard Time), Ultimate_Frisbee, 60
, , space, 9.066000000000003, , , , , , , , , , , , , , Slide10.JPG, 0, 9, 9, 9, , , , , , , , , , , , , , , , , , , 15636701, Wed Aug 16 2017 18:06:19 GMT-0400 (Eastern Standard Time), Ultimate_Frisbee, 60
, , space, 0.532999999999987, , , , , , , , , , , , , , Slide11.JPG, 0, 10, 10, 10, , , , , , , , , , , , , , , , , , , 15636701, Wed Aug 16 2017 18:06:19 GMT-0400 (Eastern Standard Time), Ultimate_Frisbee, 60
, , space, 0.16599999999999682, , , , , , , , , , , , , , Slide12.JPG, 0, 11, 11, 11, , , , , , , , , , , , , , , , , , , 15636701, Wed Aug 16 2017 18:06:19 GMT-0400 (Eastern Standard Time), Ultimate_Frisbee, 60
, , space, 4.266000000000005, , , , , , , , , , , , , , Slide13.JPG, 0, 12, 12, 12, , , , , , , , , , , , , , , , , , , 15636701, Wed Aug 16 2017 18:06:19 GMT-0400 (Eastern Standard Time), Ultimate_Frisbee, 60
, , space, 2.600999999999999, , , , , , , , , , , , , , Slide14.JPG, 0, 13, 13, 13, , , , , , , , , , , , , , , , , , , 15636701, Wed Aug 16 2017 18:06:19 GMT-0400 (Eastern Standard Time), Ultimate_Frisbee, 60
, , , , 0, 4.033000000000001, space, 0.3999999999999915, left, 2.0309999999999917, , , , , , , , , , , , , , , , , frizFarLeft.jpg, The force is forehand., left, 0, 0, 0, 0, frizFarLeft.jpg, The force is forehand., left, , , , , 15636701, Wed Aug 16 2017 18:06:19 GMT-0400 (Eastern Standard Time), Ultimate_Frisbee, 60
, , , , , , , , right, 2.245999999999995, , , , , , , , , , , , , , , , , frizNearLeft.jpg, The force is away., right, 0, 1, 1, 1, frizNearLeft.jpg, The force is away., right, , , , , 15636701, Wed Aug 16 2017 18:06:19 GMT-0400 (Eastern Standard Time), Ultimate_Frisbee, 60
, , , , , , , , right, 1.7789999999999964, , , , , , , , , , , , , , , , , frizFarRight.jpg, The force is backhand., right, 0, 2, 2, 2, frizFarRight.jpg, The force is backhand., right, , , , , 15636701, Wed Aug 16 2017 18:06:19 GMT-0400 (Eastern Standard Time), Ultimate_Frisbee, 60
, , , , , , , , right, 1.5279999999999916, , , , , , , , , , , , , , , , , frizNearRight.jpg, The force is home., right, 0, 3, 3, 3, frizNearRight.jpg, The force is home., right, , , , , 15636701, Wed Aug 16 2017 18:06:19 GMT-0400 (Eastern Standard Time), Ultimate_Frisbee, 60
, , , , , , , , left, 1.8640000000000043, , , , , , , , , , , , , , , , , frizNearLeft.jpg, The force is backhand., left, 0, 4, 4, 4, frizNearLeft.jpg, The force is backhand., left, , , , , 15636701, Wed Aug 16 2017 18:06:19 GMT-0400 (Eastern Standard Time), Ultimate_Frisbee, 60
, , , , , , , , right, 0.813999999999993, , , , , , , , , , , , , , , , , frizNearRight.jpg, The force is home., right, 0, 5, 5, 5, frizNearRight.jpg, The force is home., right, , , , , 15636701, Wed Aug 16 2017 18:06:19 GMT-0400 (Eastern Standard Time), Ultimate_Frisbee, 60
, , , , , , , , right, 1.0320000000000107, , , , , , , , , , , , , , , , , frizNearLeft.jpg, The force is away., right, 0, 6, 6, 6, frizNearLeft.jpg, The force is away., right, , , , , 15636701, Wed Aug 16 2017 18:06:19 GMT-0400 (Eastern Standard Time), Ultimate_Frisbee, 60
, , , , , , , , left, 2.0960000000000036, , , , , , , , , , , , , , , , , frizFarLeft.jpg, The force is forehand., left, 0, 7, 7, 7, frizFarLeft.jpg, The force is forehand., left, , , , , 15636701, Wed Aug 16 2017 18:06:19 GMT-0400 (Eastern Standard Time), Ultimate_Frisbee, 60
, , , , , , , , , , space, 3.234999999999985, right, 1, 1.450000000000017, , , , , , , , , , , , frizNearLeft.jpg, The force is forehand., right, , , , , frizNearLeft.jpg, The force is forehand., right, 0, 0, 0, 2, 15636701, Wed Aug 16 2017 18:06:19 GMT-0400 (Eastern Standard Time), Ultimate_Frisbee, 60
, , , , , , , , , , , , left, 1, 1.25, , , , , , , , , , , , frizFarRight.jpg, The force is away., left, , , , , frizFarRight.jpg, The force is away., left, 0, 1, 1, 13, 15636701, Wed Aug 16 2017 18:06:19 GMT-0400 (Eastern Standard Time), Ultimate_Frisbee, 60
, , , , , , , , , , , , left, 1, 0.9330000000000211, , , , , , , , , , , , frizNearRight.jpg, The force is away., left, , , , , frizNearRight.jpg, The force is away., left, 0, 2, 2, 15, 15636701, Wed Aug 16 2017 18:06:19 GMT-0400 (Eastern Standard Time), Ultimate_Frisbee, 60
, , , , , , , , , , , , left, 1, 1.6500000000000057, , , , , , , , , , , , frizFarLeft.jpg, The force is forehand., left, , , , , frizFarLeft.jpg, The force is forehand., left, 0, 3, 3, 0, 15636701, Wed Aug 16 2017 18:06:19 GMT-0400 (Eastern Standard Time), Ultimate_Frisbee, 60
, , , , , , , , , , , , right, 1, 1.0669999999999789, , , , , , , , , , , , frizFarLeft.jpg, The force is backhand., right, , , , , frizFarLeft.jpg, The force is backhand., right, 0, 4, 4, 4, 15636701, Wed Aug 16 2017 18:06:19 GMT-0400 (Eastern Standard Time), Ultimate_Frisbee, 60
, , , , , , , , , , , , right, 1, 1.4000000000000057, , , , , , , , , , , , frizFarRight.jpg, The force is backhand., right, , , , , frizFarRight.jpg, The force is backhand., right, 0, 5, 5, 5, 15636701, Wed Aug 16 2017 18:06:19 GMT-0400 (Eastern Standard Time), Ultimate_Frisbee, 60
, , , , , , , , , , , , left, 1, 1.1839999999999975, , , , , , , , , , , , frizNearRight.jpg, The force is backhand., left, , , , , frizNearRight.jpg, The force is backhand., left, 0, 6, 6, 7, 15636701, Wed Aug 16 2017 18:06:19 GMT-0400 (Eastern Standard Time), Ultimate_Frisbee, 60
, , , , , , , , , , , , left, 1, 1.0480000000000018, , , , , , , , , , , , frizFarLeft.jpg, The force is home., left, , , , , frizFarLeft.jpg, The force is home., left, 0, 7, 7, 8, 15636701, Wed Aug 16 2017 18:06:19 GMT-0400 (Eastern Standard Time), Ultimate_Frisbee, 60
, , , , , , , , , , , , left, 1, 1.5490000000000066, , , , , , , , , , , , frizFarRight.jpg, The force is forehand., left, , , , , frizFarRight.jpg, The force is forehand., left, 0, 8, 8, 1, 15636701, Wed Aug 16 2017 18:06:19 GMT-0400 (Eastern Standard Time), Ultimate_Frisbee, 60
, , , , , , , , , , , , left, 1, 0.9840000000000089, , , , , , , , , , , , frizNearLeft.jpg, The force is home., left, , , , , frizNearLeft.jpg, The force is home., left, 0, 9, 9, 10, 15636701, Wed Aug 16 2017 18:06:19 GMT-0400 (Eastern Standard Time), Ultimate_Frisbee, 60
, , , , , , , , , , , , right, 1, 0.9660000000000082, , , , , , , , , , , , frizNearLeft.jpg, The force is away., right, , , , , frizNearLeft.jpg, The force is away., right, 0, 10, 10, 14, 15636701, Wed Aug 16 2017 18:06:19 GMT-0400 (Eastern Standard Time), Ultimate_Frisbee, 60
, , , , , , , , , , , , right, 1, 0.9840000000000089, , , , , , , , , , , , frizFarLeft.jpg, The force is away., right, , , , , frizFarLeft.jpg, The force is away., right, 0, 11, 11, 12, 15636701, Wed Aug 16 2017 18:06:19 GMT-0400 (Eastern Standard Time), Ultimate_Frisbee, 60
, , , , , , , , , , , , left, 1, 2.6169999999999902, , , , , , , , , , , , frizNearLeft.jpg, The force is backhand., left, , , , , frizNearLeft.jpg, The force is backhand., left, 0, 12, 12, 6, 15636701, Wed Aug 16 2017 18:06:19 GMT-0400 (Eastern Standard Time), Ultimate_Frisbee, 60
, , , , , , , , , , , , right, 1, 0.9830000000000041, , , , , , , , , , , , frizFarRight.jpg, The force is home., right, , , , , frizFarRight.jpg, The force is home., right, 0, 13, 13, 9, 15636701, Wed Aug 16 2017 18:06:19 GMT-0400 (Eastern Standard Time), Ultimate_Frisbee, 60
, , , , , , , , , , , , right, 1, 3.450000000000017, , , , , , , , , , , , frizNearRight.jpg, The force is forehand., right, , , , , frizNearRight.jpg, The force is forehand., right, 0, 14, 14, 3, 15636701, Wed Aug 16 2017 18:06:19 GMT-0400 (Eastern Standard Time), Ultimate_Frisbee, 60
, , , , , , , , , , , , right, 1, 0.7489999999999952, , , , , , , , , , , , frizNearRight.jpg, The force is home., right, , , , , frizNearRight.jpg, The force is home., right, 0, 15, 15, 11, 15636701, Wed Aug 16 2017 18:06:19 GMT-0400 (Eastern Standard Time), Ultimate_Frisbee, 60
, , , , , , , , , , , , right, 1, 0.6829999999999927, , , , , , , , , , , , frizFarLeft.jpg, The force is away., right, , , , , frizFarLeft.jpg, The force is away., right, 1, 0, 16, 12, 15636701, Wed Aug 16 2017 18:06:19 GMT-0400 (Eastern Standard Time), Ultimate_Frisbee, 60
, , , , , , , , , , , , left, 1, 1.4339999999999975, , , , , , , , , , , , frizFarRight.jpg, The force is away., left, , , , , frizFarRight.jpg, The force is away., left, 1, 1, 17, 13, 15636701, Wed Aug 16 2017 18:06:19 GMT-0400 (Eastern Standard Time), Ultimate_Frisbee, 60
, , , , , , , , , , , , right, 1, 0.6929999999999836, , , , , , , , , , , , frizNearRight.jpg, The force is home., right, , , , , frizNearRight.jpg, The force is home., right, 1, 2, 18, 11, 15636701, Wed Aug 16 2017 18:06:19 GMT-0400 (Eastern Standard Time), Ultimate_Frisbee, 60
, , , , , , , , , , , , left, 1, 1.75, , , , , , , , , , , , frizNearLeft.jpg, The force is backhand., left, , , , , frizNearLeft.jpg, The force is backhand., left, 1, 3, 19, 6, 15636701, Wed Aug 16 2017 18:06:19 GMT-0400 (Eastern Standard Time), Ultimate_Frisbee, 60
, , , , , , , , , , , , left, 1, 0.8650000000000091, , , , , , , , , , , , frizNearRight.jpg, The force is backhand., left, , , , , frizNearRight.jpg, The force is backhand., left, 1, 4, 20, 7, 15636701, Wed Aug 16 2017 18:06:19 GMT-0400 (Eastern Standard Time), Ultimate_Frisbee, 60
, , , , , , , , , , , , right, 1, 1.3660000000000139, , , , , , , , , , , , frizNearLeft.jpg, The force is away., right, , , , , frizNearLeft.jpg, The force is away., right, 1, 5, 21, 14, 15636701, Wed Aug 16 2017 18:06:19 GMT-0400 (Eastern Standard Time), Ultimate_Frisbee, 60
, , , , , , , , , , , , right, 1, 1.782999999999987, , , , , , , , , , , , frizNearLeft.jpg, The force is forehand., right, , , , , frizNearLeft.jpg, The force is forehand., right, 1, 6, 22, 2, 15636701, Wed Aug 16 2017 18:06:19 GMT-0400 (Eastern Standard Time), Ultimate_Frisbee, 60
, , , , , , , , , , , , right, 1, 1.6830000000000211, , , , , , , , , , , , frizFarLeft.jpg, The force is backhand., right, , , , , frizFarLeft.jpg, The force is backhand., right, 1, 7, 23, 4, 15636701, Wed Aug 16 2017 18:06:19 GMT-0400 (Eastern Standard Time), Ultimate_Frisbee, 60
, , , , , , , , , , , , left, 1, 1.1499999999999773, , , , , , , , , , , , frizFarRight.jpg, The force is forehand., left, , , , , frizFarRight.jpg, The force is forehand., left, 1, 8, 24, 1, 15636701, Wed Aug 16 2017 18:06:19 GMT-0400 (Eastern Standard Time), Ultimate_Frisbee, 60
, , , , , , , , , , , , left, 1, 0.6490000000000009, , , , , , , , , , , , frizNearLeft.jpg, The force is home., left, , , , , frizNearLeft.jpg, The force is home., left, 1, 9, 25, 10, 15636701, Wed Aug 16 2017 18:06:19 GMT-0400 (Eastern Standard Time), Ultimate_Frisbee, 60
, , , , , , , , , , , , right, 1, 1.6990000000000123, , , , , , , , , , , , frizNearRight.jpg, The force is forehand., right, , , , , frizNearRight.jpg, The force is forehand., right, 1, 10, 26, 3, 15636701, Wed Aug 16 2017 18:06:19 GMT-0400 (Eastern Standard Time), Ultimate_Frisbee, 60
, , , , , , , , , , , , left, 1, 1.1330000000000098, , , , , , , , , , , , frizNearRight.jpg, The force is away., left, , , , , frizNearRight.jpg, The force is away., left, 1, 11, 27, 15, 15636701, Wed Aug 16 2017 18:06:19 GMT-0400 (Eastern Standard Time), Ultimate_Frisbee, 60
, , , , , , , , , , , , right, 1, 1.5989999999999895, , , , , , , , , , , , frizFarRight.jpg, The force is backhand., right, , , , , frizFarRight.jpg, The force is backhand., right, 1, 12, 28, 5, 15636701, Wed Aug 16 2017 18:06:19 GMT-0400 (Eastern Standard Time), Ultimate_Frisbee, 60
, , , , , , , , , , , , right, 1, 0.9329999999999927, , , , , , , , , , , , frizFarRight.jpg, The force is home., right, , , , , frizFarRight.jpg, The force is home., right, 1, 13, 29, 9, 15636701, Wed Aug 16 2017 18:06:19 GMT-0400 (Eastern Standard Time), Ultimate_Frisbee, 60
, , , , , , , , , , , , left, 1, 0.75, , , , , , , , , , , , frizFarLeft.jpg, The force is home., left, , , , , frizFarLeft.jpg, The force is home., left, 1, 14, 30, 8, 15636701, Wed Aug 16 2017 18:06:19 GMT-0400 (Eastern Standard Time), Ultimate_Frisbee, 60
, , , , , , , , , , , , left, 1, 1.4329999999999927, , , , , , , , , , , , frizFarLeft.jpg, The force is forehand., left, , , , , frizFarLeft.jpg, The force is forehand., left, 1, 15, 31, 0, 15636701, Wed Aug 16 2017 18:06:19 GMT-0400 (Eastern Standard Time), Ultimate_Frisbee, 60
, , , , , , , , , , , , right, 1, 1.016999999999996, , , , , , , , , , , , frizFarLeft.jpg, The force is away., right, , , , , frizFarLeft.jpg, The force is away., right, 2, 0, 32, 12, 15636701, Wed Aug 16 2017 18:06:19 GMT-0400 (Eastern Standard Time), Ultimate_Frisbee, 60
, , , , , , , , , , , , left, 1, 1.75, , , , , , , , , , , , frizNearRight.jpg, The force is backhand., left, , , , , frizNearRight.jpg, The force is backhand., left, 2, 1, 33, 7, 15636701, Wed Aug 16 2017 18:06:19 GMT-0400 (Eastern Standard Time), Ultimate_Frisbee, 60
, , , , , , , , , , , , left, 1, 2.0160000000000196, , , , , , , , , , , , frizFarLeft.jpg, The force is forehand., left, , , , , frizFarLeft.jpg, The force is forehand., left, 2, 2, 34, 0, 15636701, Wed Aug 16 2017 18:06:19 GMT-0400 (Eastern Standard Time), Ultimate_Frisbee, 60
, , , , , , , , , , , , right, 1, 1.5159999999999627, , , , , , , , , , , , frizFarRight.jpg, The force is home., right, , , , , frizFarRight.jpg, The force is home., right, 2, 3, 35, 9, 15636701, Wed Aug 16 2017 18:06:19 GMT-0400 (Eastern Standard Time), Ultimate_Frisbee, 60
, , , , , , , , , , , , left, 1, 1.0330000000000155, , , , , , , , , , , , frizFarRight.jpg, The force is forehand., left, , , , , frizFarRight.jpg, The force is forehand., left, 2, 4, 36, 1, 15636701, Wed Aug 16 2017 18:06:19 GMT-0400 (Eastern Standard Time), Ultimate_Frisbee, 60
, , , , , , , , , , , , left, 1, 0.8159999999999741, , , , , , , , , , , , frizNearLeft.jpg, The force is home., left, , , , , frizNearLeft.jpg, The force is home., left, 2, 5, 37, 10, 15636701, Wed Aug 16 2017 18:06:19 GMT-0400 (Eastern Standard Time), Ultimate_Frisbee, 60
, , , , , , , , , , , , right, 1, 2.4669999999999845, , , , , , , , , , , , frizNearLeft.jpg, The force is forehand., right, , , , , frizNearLeft.jpg, The force is forehand., right, 2, 6, 38, 2, 15636701, Wed Aug 16 2017 18:06:19 GMT-0400 (Eastern Standard Time), Ultimate_Frisbee, 60
, , , , , , , , , , , , right, 1, 0.8670000000000186, , , , , , , , , , , , frizNearRight.jpg, The force is home., right, , , , , frizNearRight.jpg, The force is home., right, 2, 7, 39, 11, 15636701, Wed Aug 16 2017 18:06:19 GMT-0400 (Eastern Standard Time), Ultimate_Frisbee, 60
, , , , , , , , , , , , right, 1, 1, , , , , , , , , , , , frizNearLeft.jpg, The force is away., right, , , , , frizNearLeft.jpg, The force is away., right, 2, 8, 40, 14, 15636701, Wed Aug 16 2017 18:06:19 GMT-0400 (Eastern Standard Time), Ultimate_Frisbee, 60
, , , , , , , , , , , , left, 1, 0.91700000000003, , , , , , , , , , , , frizFarRight.jpg, The force is away., left, , , , , frizFarRight.jpg, The force is away., left, 2, 9, 41, 13, 15636701, Wed Aug 16 2017 18:06:19 GMT-0400 (Eastern Standard Time), Ultimate_Frisbee, 60
, , , , , , , , , , , , right, 1, 3.099999999999966, , , , , , , , , , , , frizNearRight.jpg, The force is forehand., right, , , , , frizNearRight.jpg, The force is forehand., right, 2, 10, 42, 3, 15636701, Wed Aug 16 2017 18:06:19 GMT-0400 (Eastern Standard Time), Ultimate_Frisbee, 60
, , , , , , , , , , , , left, 1, 0.8830000000000382, , , , , , , , , , , , frizFarLeft.jpg, The force is home., left, , , , , frizFarLeft.jpg, The force is home., left, 2, 11, 43, 8, 15636701, Wed Aug 16 2017 18:06:19 GMT-0400 (Eastern Standard Time), Ultimate_Frisbee, 60
, , , , , , , , , , , , right, 1, 1.5340000000000487, , , , , , , , , , , , frizFarLeft.jpg, The force is backhand., right, , , , , frizFarLeft.jpg, The force is backhand., right, 2, 12, 44, 4, 15636701, Wed Aug 16 2017 18:06:19 GMT-0400 (Eastern Standard Time), Ultimate_Frisbee, 60
, , , , , , , , , , , , left, 1, 0.8840000000000146, , , , , , , , , , , , frizNearRight.jpg, The force is away., left, , , , , frizNearRight.jpg, The force is away., left, 2, 13, 45, 15, 15636701, Wed Aug 16 2017 18:06:19 GMT-0400 (Eastern Standard Time), Ultimate_Frisbee, 60
, , , , , , , , , , , , left, 1, 1.6149999999999523, , , , , , , , , , , , frizNearLeft.jpg, The force is backhand., left, , , , , frizNearLeft.jpg, The force is backhand., left, 2, 14, 46, 6, 15636701, Wed Aug 16 2017 18:06:19 GMT-0400 (Eastern Standard Time), Ultimate_Frisbee, 60
, , , , , , , , , , , , right, 1, 1.1330000000000382, , , , , , , , , , , , frizFarRight.jpg, The force is backhand., right, , , , , frizFarRight.jpg, The force is backhand., right, 2, 15, 47, 5, 15636701, Wed Aug 16 2017 18:06:19 GMT-0400 (Eastern Standard Time), Ultimate_Frisbee, 60
, , , , , , , , , , , , left, 1, 1.0500000000000114, , , , , , , , , , , , frizNearLeft.jpg, The force is backhand., left, , , , , frizNearLeft.jpg, The force is backhand., left, 3, 0, 48, 6, 15636701, Wed Aug 16 2017 18:06:19 GMT-0400 (Eastern Standard Time), Ultimate_Frisbee, 60
, , , , , , , , , , , , right, 1, 0.8499999999999659, , , , , , , , , , , , frizFarRight.jpg, The force is home., right, , , , , frizFarRight.jpg, The force is home., right, 3, 1, 49, 9, 15636701, Wed Aug 16 2017 18:06:19 GMT-0400 (Eastern Standard Time), Ultimate_Frisbee, 60
, , , , , , , , , , , , right, 1, 1.483000000000004, , , , , , , , , , , , frizNearLeft.jpg, The force is forehand., right, , , , , frizNearLeft.jpg, The force is forehand., right, 3, 2, 50, 2, 15636701, Wed Aug 16 2017 18:06:19 GMT-0400 (Eastern Standard Time), Ultimate_Frisbee, 60
, , , , , , , , , , , , left, 1, 0.8170000000000073, , , , , , , , , , , , frizFarRight.jpg, The force is forehand., left, , , , , frizFarRight.jpg, The force is forehand., left, 3, 3, 51, 1, 15636701, Wed Aug 16 2017 18:06:19 GMT-0400 (Eastern Standard Time), Ultimate_Frisbee, 60
, , , , , , , , , , , , left, 1, 0.5840000000000032, , , , , , , , , , , , frizFarLeft.jpg, The force is home., left, , , , , frizFarLeft.jpg, The force is home., left, 3, 4, 52, 8, 15636701, Wed Aug 16 2017 18:06:19 GMT-0400 (Eastern Standard Time), Ultimate_Frisbee, 60
, , , , , , , , , , , , left, 1, 0.91700000000003, , , , , , , , , , , , frizNearLeft.jpg, The force is home., left, , , , , frizNearLeft.jpg, The force is home., left, 3, 5, 53, 10, 15636701, Wed Aug 16 2017 18:06:19 GMT-0400 (Eastern Standard Time), Ultimate_Frisbee, 60
, , , , , , , , , , , , left, 1, 0.8170000000000073, , , , , , , , , , , , frizFarRight.jpg, The force is away., left, , , , , frizFarRight.jpg, The force is away., left, 3, 6, 54, 13, 15636701, Wed Aug 16 2017 18:06:19 GMT-0400 (Eastern Standard Time), Ultimate_Frisbee, 60
, , , , , , , , , , , , right, 1, 0.8500000000000227, , , , , , , , , , , , frizFarLeft.jpg, The force is away., right, , , , , frizFarLeft.jpg, The force is away., right, 3, 7, 55, 12, 15636701, Wed Aug 16 2017 18:06:19 GMT-0400 (Eastern Standard Time), Ultimate_Frisbee, 60
, , , , , , , , , , , , right, 1, 1.1000000000000227, , , , , , , , , , , , frizFarRight.jpg, The force is backhand., right, , , , , frizFarRight.jpg, The force is backhand., right, 3, 8, 56, 5, 15636701, Wed Aug 16 2017 18:06:19 GMT-0400 (Eastern Standard Time), Ultimate_Frisbee, 60
, , , , , , , , , , , , right, 1, 1.0840000000000032, , , , , , , , , , , , frizFarLeft.jpg, The force is backhand., right, , , , , frizFarLeft.jpg, The force is backhand., right, 3, 9, 57, 4, 15636701, Wed Aug 16 2017 18:06:19 GMT-0400 (Eastern Standard Time), Ultimate_Frisbee, 60
, , , , , , , , , , , , right, 1, 1.7339999999999804, , , , , , , , , , , , frizNearRight.jpg, The force is home., right, , , , , frizNearRight.jpg, The force is home., right, 3, 10, 58, 11, 15636701, Wed Aug 16 2017 18:06:19 GMT-0400 (Eastern Standard Time), Ultimate_Frisbee, 60
, , , , , , , , , , , , right, 1, 0.7650000000000432, , , , , , , , , , , , frizNearLeft.jpg, The force is away., right, , , , , frizNearLeft.jpg, The force is away., right, 3, 11, 59, 14, 15636701, Wed Aug 16 2017 18:06:19 GMT-0400 (Eastern Standard Time), Ultimate_Frisbee, 60
, , , , , , , , , , , , right, 1, 1.3500000000000227, , , , , , , , , , , , frizNearRight.jpg, The force is forehand., right, , , , , frizNearRight.jpg, The force is forehand., right, 3, 12, 60, 3, 15636701, Wed Aug 16 2017 18:06:19 GMT-0400 (Eastern Standard Time), Ultimate_Frisbee, 60
, , , , , , , , , , , , left, 1, 1.4490000000000123, , , , , , , , , , , , frizFarLeft.jpg, The force is forehand., left, , , , , frizFarLeft.jpg, The force is forehand., left, 3, 13, 61, 0, 15636701, Wed Aug 16 2017 18:06:19 GMT-0400 (Eastern Standard Time), Ultimate_Frisbee, 60
, , , , , , , , , , , , left, 1, 1.6159999999999854, , , , , , , , , , , , frizNearRight.jpg, The force is away., left, , , , , frizNearRight.jpg, The force is away., left, 3, 14, 62, 15, 15636701, Wed Aug 16 2017 18:06:19 GMT-0400 (Eastern Standard Time), Ultimate_Frisbee, 60
, , , , , , , , , , , , right, 0, 0.9330000000000496, , , , , , , , , , , , frizNearRight.jpg, The force is backhand., left, , , , , frizNearRight.jpg, The force is backhand., left, 3, 15, 63, 7, 15636701, Wed Aug 16 2017 18:06:19 GMT-0400 (Eastern Standard Time), Ultimate_Frisbee, 60
