Continue.keys, Continue.rt, instructions_response.keys, instructions_response.rt, repeat_response.keys, repeat_response.rt, key_resp_5.keys, key_resp_5.rt, key_resp_2.keys, key_resp_2.rt, key_resp_4.keys, key_resp_4.rt, Trials_response.keys, Trials_response.corr, Trials_response.rt, Block_Continue.keys, Block_Continue.rt, Image, instructions_1_loop.thisRepN, instructions_1_loop.thisTrialN, instructions_1_loop.thisN, instructions_1_loop.thisIndex, instructions_2_repeat.thisRepN, instructions_2_repeat.thisTrialN, instructions_2_repeat.thisN, instructions_2_repeat.thisIndex, stim, prompt, answer, trials_2.thisRepN, trials_2.thisTrialN, trials_2.thisN, trials_2.thisIndex, stim, prompt, answer, trials.thisRepN, trials.thisTrialN, trials.thisN, trials.thisIndex, participant, date, expName, frameRate
space, 0.43799999999999883, space, 3.4570000000000007, , , , , , , , , , , , , , Slide1.JPG, 0, 0, 0, 0, , , , , , , , , , , , , , , , , , , 22363073, Wed Nov 15 2017 13:50:02 GMT-0500 (Eastern Standard Time), Ultimate_Frisbee, 60
, , space, 12.635000000000002, , , , , , , , , , , , , , Slide2.JPG, 0, 1, 1, 1, , , , , , , , , , , , , , , , , , , 22363073, Wed Nov 15 2017 13:50:02 GMT-0500 (Eastern Standard Time), Ultimate_Frisbee, 60
, , space, 10.467999999999996, , , , , , , , , , , , , , Slide3.JPG, 0, 2, 2, 2, , , , , , , , , , , , , , , , , , , 22363073, Wed Nov 15 2017 13:50:02 GMT-0500 (Eastern Standard Time), Ultimate_Frisbee, 60
, , space, 2.886000000000003, , , , , , , , , , , , , , Slide4.JPG, 0, 3, 3, 3, , , , , , , , , , , , , , , , , , , 22363073, Wed Nov 15 2017 13:50:02 GMT-0500 (Eastern Standard Time), Ultimate_Frisbee, 60
, , space, 10.945999999999998, , , , , , , , , , , , , , Slide5.JPG, 0, 4, 4, 4, , , , , , , , , , , , , , , , , , , 22363073, Wed Nov 15 2017 13:50:02 GMT-0500 (Eastern Standard Time), Ultimate_Frisbee, 60
, , space, 12.213000000000001, , , , , , , , , , , , , , Slide6.JPG, 0, 5, 5, 5, , , , , , , , , , , , , , , , , , , 22363073, Wed Nov 15 2017 13:50:02 GMT-0500 (Eastern Standard Time), Ultimate_Frisbee, 60
, , space, 8.611000000000004, , , , , , , , , , , , , , Slide7.JPG, 0, 6, 6, 6, , , , , , , , , , , , , , , , , , , 22363073, Wed Nov 15 2017 13:50:02 GMT-0500 (Eastern Standard Time), Ultimate_Frisbee, 60
, , space, 9.593000000000004, , , , , , , , , , , , , , Slide8.JPG, 0, 7, 7, 7, , , , , , , , , , , , , , , , , , , 22363073, Wed Nov 15 2017 13:50:02 GMT-0500 (Eastern Standard Time), Ultimate_Frisbee, 60
, , space, 5.522999999999996, , , , , , , , , , , , , , Slide9.JPG, 0, 8, 8, 8, , , , , , , , , , , , , , , , , , , 22363073, Wed Nov 15 2017 13:50:02 GMT-0500 (Eastern Standard Time), Ultimate_Frisbee, 60
, , space, 8.013000000000005, , , , , , , , , , , , , , Slide10.JPG, 0, 9, 9, 9, , , , , , , , , , , , , , , , , , , 22363073, Wed Nov 15 2017 13:50:02 GMT-0500 (Eastern Standard Time), Ultimate_Frisbee, 60
, , space, 3.305000000000007, , , , , , , , , , , , , , Slide11.JPG, 0, 10, 10, 10, , , , , , , , , , , , , , , , , , , 22363073, Wed Nov 15 2017 13:50:02 GMT-0500 (Eastern Standard Time), Ultimate_Frisbee, 60
, , space, 0.7619999999999862, , , , , , , , , , , , , , Slide12.JPG, 0, 11, 11, 11, , , , , , , , , , , , , , , , , , , 22363073, Wed Nov 15 2017 13:50:02 GMT-0500 (Eastern Standard Time), Ultimate_Frisbee, 60
, , space, 0.25, , , , , , , , , , , , , , Slide13.JPG, 0, 12, 12, 12, , , , , , , , , , , , , , , , , , , 22363073, Wed Nov 15 2017 13:50:02 GMT-0500 (Eastern Standard Time), Ultimate_Frisbee, 60
, , space, 8.759, , , , , , , , , , , , , , Slide14.JPG, 0, 13, 13, 13, , , , , , , , , , , , , , , , , , , 22363073, Wed Nov 15 2017 13:50:02 GMT-0500 (Eastern Standard Time), Ultimate_Frisbee, 60
, , , , 0, 2.6200000000000045, space, 2.4579999999999984, left, 2.6359999999999957, , , , , , , , , , , , , , , , , frizFarLeft.jpg, The force is forehand., left, 0, 0, 0, 0, frizFarLeft.jpg, The force is forehand., left, , , , , 22363073, Wed Nov 15 2017 13:50:02 GMT-0500 (Eastern Standard Time), Ultimate_Frisbee, 60
, , , , , , , , right, 1.167999999999978, , , , , , , , , , , , , , , , , frizNearLeft.jpg, The force is away., right, 0, 1, 1, 1, frizNearLeft.jpg, The force is away., right, , , , , 22363073, Wed Nov 15 2017 13:50:02 GMT-0500 (Eastern Standard Time), Ultimate_Frisbee, 60
, , , , , , , , right, 1.8329999999999984, , , , , , , , , , , , , , , , , frizFarRight.jpg, The force is backhand., right, 0, 2, 2, 2, frizFarRight.jpg, The force is backhand., right, , , , , 22363073, Wed Nov 15 2017 13:50:02 GMT-0500 (Eastern Standard Time), Ultimate_Frisbee, 60
, , , , , , , , right, 1.0510000000000161, , , , , , , , , , , , , , , , , frizNearRight.jpg, The force is home., right, 0, 3, 3, 3, frizNearRight.jpg, The force is home., right, , , , , 22363073, Wed Nov 15 2017 13:50:02 GMT-0500 (Eastern Standard Time), Ultimate_Frisbee, 60
, , , , , , , , right, 1.3480000000000132, , , , , , , , , , , , , , , , , frizNearLeft.jpg, The force is backhand., left, 0, 4, 4, 4, frizNearLeft.jpg, The force is backhand., left, , , , , 22363073, Wed Nov 15 2017 13:50:02 GMT-0500 (Eastern Standard Time), Ultimate_Frisbee, 60
, , , , , , , , right, 1.0159999999999911, , , , , , , , , , , , , , , , , frizNearRight.jpg, The force is home., right, 0, 5, 5, 5, frizNearRight.jpg, The force is home., right, , , , , 22363073, Wed Nov 15 2017 13:50:02 GMT-0500 (Eastern Standard Time), Ultimate_Frisbee, 60
, , , , , , , , right, 0.8029999999999973, , , , , , , , , , , , , , , , , frizNearLeft.jpg, The force is away., right, 0, 6, 6, 6, frizNearLeft.jpg, The force is away., right, , , , , 22363073, Wed Nov 15 2017 13:50:02 GMT-0500 (Eastern Standard Time), Ultimate_Frisbee, 60
, , , , , , , , left, 2.419000000000011, , , , , , , , , , , , , , , , , frizFarLeft.jpg, The force is forehand., left, 0, 7, 7, 7, frizFarLeft.jpg, The force is forehand., left, , , , , 22363073, Wed Nov 15 2017 13:50:02 GMT-0500 (Eastern Standard Time), Ultimate_Frisbee, 60
, , , , , , , , , , space, 9.478000000000009, right, 1, 0.8340000000000032, , , , , , , , , , , , frizNearRight.jpg, The force is home., right, , , , , frizNearRight.jpg, The force is home., right, 0, 0, 0, 11, 22363073, Wed Nov 15 2017 13:50:02 GMT-0500 (Eastern Standard Time), Ultimate_Frisbee, 60
, , , , , , , , , , , , right, 1, 0.853999999999985, , , , , , , , , , , , frizFarLeft.jpg, The force is away., right, , , , , frizFarLeft.jpg, The force is away., right, 0, 1, 1, 12, 22363073, Wed Nov 15 2017 13:50:02 GMT-0500 (Eastern Standard Time), Ultimate_Frisbee, 60
, , , , , , , , , , , , left, 1, 0.818000000000012, , , , , , , , , , , , frizFarRight.jpg, The force is away., left, , , , , frizFarRight.jpg, The force is away., left, 0, 2, 2, 13, 22363073, Wed Nov 15 2017 13:50:02 GMT-0500 (Eastern Standard Time), Ultimate_Frisbee, 60
, , , , , , , , , , , , right, 1, 1.4849999999999852, , , , , , , , , , , , frizFarRight.jpg, The force is backhand., right, , , , , frizFarRight.jpg, The force is backhand., right, 0, 3, 3, 5, 22363073, Wed Nov 15 2017 13:50:02 GMT-0500 (Eastern Standard Time), Ultimate_Frisbee, 60
, , , , , , , , , , , , left, 1, 1.8010000000000161, , , , , , , , , , , , frizNearLeft.jpg, The force is backhand., left, , , , , frizNearLeft.jpg, The force is backhand., left, 0, 4, 4, 6, 22363073, Wed Nov 15 2017 13:50:02 GMT-0500 (Eastern Standard Time), Ultimate_Frisbee, 60
, , , , , , , , , , , , left, 1, 1.1359999999999957, , , , , , , , , , , , frizFarLeft.jpg, The force is home., left, , , , , frizFarLeft.jpg, The force is home., left, 0, 5, 5, 8, 22363073, Wed Nov 15 2017 13:50:02 GMT-0500 (Eastern Standard Time), Ultimate_Frisbee, 60
, , , , , , , , , , , , left, 1, 1.6740000000000066, , , , , , , , , , , , frizNearRight.jpg, The force is backhand., left, , , , , frizNearRight.jpg, The force is backhand., left, 0, 6, 6, 7, 22363073, Wed Nov 15 2017 13:50:02 GMT-0500 (Eastern Standard Time), Ultimate_Frisbee, 60
, , , , , , , , , , , , left, 1, 1.6210000000000093, , , , , , , , , , , , frizFarLeft.jpg, The force is forehand., left, , , , , frizFarLeft.jpg, The force is forehand., left, 0, 7, 7, 0, 22363073, Wed Nov 15 2017 13:50:02 GMT-0500 (Eastern Standard Time), Ultimate_Frisbee, 60
, , , , , , , , , , , , left, 1, 1.100999999999999, , , , , , , , , , , , frizNearRight.jpg, The force is away., left, , , , , frizNearRight.jpg, The force is away., left, 0, 8, 8, 15, 22363073, Wed Nov 15 2017 13:50:02 GMT-0500 (Eastern Standard Time), Ultimate_Frisbee, 60
, , , , , , , , , , , , left, 1, 1.117999999999995, , , , , , , , , , , , frizFarRight.jpg, The force is forehand., left, , , , , frizFarRight.jpg, The force is forehand., left, 0, 9, 9, 1, 22363073, Wed Nov 15 2017 13:50:02 GMT-0500 (Eastern Standard Time), Ultimate_Frisbee, 60
, , , , , , , , , , , , right, 1, 1.068000000000012, , , , , , , , , , , , frizNearLeft.jpg, The force is forehand., right, , , , , frizNearLeft.jpg, The force is forehand., right, 0, 10, 10, 2, 22363073, Wed Nov 15 2017 13:50:02 GMT-0500 (Eastern Standard Time), Ultimate_Frisbee, 60
, , , , , , , , , , , , right, 1, 1.4850000000000136, , , , , , , , , , , , frizFarLeft.jpg, The force is backhand., right, , , , , frizFarLeft.jpg, The force is backhand., right, 0, 11, 11, 4, 22363073, Wed Nov 15 2017 13:50:02 GMT-0500 (Eastern Standard Time), Ultimate_Frisbee, 60
, , , , , , , , , , , , right, 1, 0.9170000000000016, , , , , , , , , , , , frizFarRight.jpg, The force is home., right, , , , , frizFarRight.jpg, The force is home., right, 0, 12, 12, 9, 22363073, Wed Nov 15 2017 13:50:02 GMT-0500 (Eastern Standard Time), Ultimate_Frisbee, 60
, , , , , , , , , , , , right, 1, 0.9869999999999948, , , , , , , , , , , , frizNearRight.jpg, The force is forehand., right, , , , , frizNearRight.jpg, The force is forehand., right, 0, 13, 13, 3, 22363073, Wed Nov 15 2017 13:50:02 GMT-0500 (Eastern Standard Time), Ultimate_Frisbee, 60
, , , , , , , , , , , , left, 1, 0.8689999999999998, , , , , , , , , , , , frizNearLeft.jpg, The force is home., left, , , , , frizNearLeft.jpg, The force is home., left, 0, 14, 14, 10, 22363073, Wed Nov 15 2017 13:50:02 GMT-0500 (Eastern Standard Time), Ultimate_Frisbee, 60
, , , , , , , , , , , , right, 1, 1.23599999999999, , , , , , , , , , , , frizNearLeft.jpg, The force is away., right, , , , , frizNearLeft.jpg, The force is away., right, 0, 15, 15, 14, 22363073, Wed Nov 15 2017 13:50:02 GMT-0500 (Eastern Standard Time), Ultimate_Frisbee, 60
, , , , , , , , , , , , left, 1, 1.1359999999999957, , , , , , , , , , , , frizNearLeft.jpg, The force is backhand., left, , , , , frizNearLeft.jpg, The force is backhand., left, 1, 0, 16, 6, 22363073, Wed Nov 15 2017 13:50:02 GMT-0500 (Eastern Standard Time), Ultimate_Frisbee, 60
, , , , , , , , , , , , right, 1, 1.6339999999999861, , , , , , , , , , , , frizFarRight.jpg, The force is backhand., right, , , , , frizFarRight.jpg, The force is backhand., right, 1, 1, 17, 5, 22363073, Wed Nov 15 2017 13:50:02 GMT-0500 (Eastern Standard Time), Ultimate_Frisbee, 60
, , , , , , , , , , , , right, 1, 0.97199999999998, , , , , , , , , , , , frizNearRight.jpg, The force is home., right, , , , , frizNearRight.jpg, The force is home., right, 1, 2, 18, 11, 22363073, Wed Nov 15 2017 13:50:02 GMT-0500 (Eastern Standard Time), Ultimate_Frisbee, 60
, , , , , , , , , , , , left, 1, 1.9359999999999786, , , , , , , , , , , , frizNearRight.jpg, The force is away., left, , , , , frizNearRight.jpg, The force is away., left, 1, 3, 19, 15, 22363073, Wed Nov 15 2017 13:50:02 GMT-0500 (Eastern Standard Time), Ultimate_Frisbee, 60
, , , , , , , , , , , , left, 1, 1.5400000000000205, , , , , , , , , , , , frizFarLeft.jpg, The force is forehand., left, , , , , frizFarLeft.jpg, The force is forehand., left, 1, 4, 20, 0, 22363073, Wed Nov 15 2017 13:50:02 GMT-0500 (Eastern Standard Time), Ultimate_Frisbee, 60
, , , , , , , , , , , , right, 1, 0.9029999999999632, , , , , , , , , , , , frizFarLeft.jpg, The force is away., right, , , , , frizFarLeft.jpg, The force is away., right, 1, 5, 21, 12, 22363073, Wed Nov 15 2017 13:50:02 GMT-0500 (Eastern Standard Time), Ultimate_Frisbee, 60
, , , , , , , , , , , , left, 1, 0.7800000000000296, , , , , , , , , , , , frizFarRight.jpg, The force is away., left, , , , , frizFarRight.jpg, The force is away., left, 1, 6, 22, 13, 22363073, Wed Nov 15 2017 13:50:02 GMT-0500 (Eastern Standard Time), Ultimate_Frisbee, 60
, , , , , , , , , , , , left, 1, 1.1999999999999886, , , , , , , , , , , , frizFarLeft.jpg, The force is home., left, , , , , frizFarLeft.jpg, The force is home., left, 1, 7, 23, 8, 22363073, Wed Nov 15 2017 13:50:02 GMT-0500 (Eastern Standard Time), Ultimate_Frisbee, 60
, , , , , , , , , , , , left, 1, 1.600999999999999, , , , , , , , , , , , frizNearRight.jpg, The force is backhand., left, , , , , frizNearRight.jpg, The force is backhand., left, 1, 8, 24, 7, 22363073, Wed Nov 15 2017 13:50:02 GMT-0500 (Eastern Standard Time), Ultimate_Frisbee, 60
, , , , , , , , , , , , right, 1, 1.0160000000000196, , , , , , , , , , , , frizNearRight.jpg, The force is forehand., right, , , , , frizNearRight.jpg, The force is forehand., right, 1, 9, 25, 3, 22363073, Wed Nov 15 2017 13:50:02 GMT-0500 (Eastern Standard Time), Ultimate_Frisbee, 60
, , , , , , , , , , , , left, 1, 0.9559999999999604, , , , , , , , , , , , frizFarRight.jpg, The force is forehand., left, , , , , frizFarRight.jpg, The force is forehand., left, 1, 10, 26, 1, 22363073, Wed Nov 15 2017 13:50:02 GMT-0500 (Eastern Standard Time), Ultimate_Frisbee, 60
, , , , , , , , , , , , right, 1, 0.9290000000000305, , , , , , , , , , , , frizNearLeft.jpg, The force is away., right, , , , , frizNearLeft.jpg, The force is away., right, 1, 11, 27, 14, 22363073, Wed Nov 15 2017 13:50:02 GMT-0500 (Eastern Standard Time), Ultimate_Frisbee, 60
, , , , , , , , , , , , right, 1, 1.0190000000000055, , , , , , , , , , , , frizNearLeft.jpg, The force is forehand., right, , , , , frizNearLeft.jpg, The force is forehand., right, 1, 12, 28, 2, 22363073, Wed Nov 15 2017 13:50:02 GMT-0500 (Eastern Standard Time), Ultimate_Frisbee, 60
, , , , , , , , , , , , right, 1, 0.9519999999999982, , , , , , , , , , , , frizFarLeft.jpg, The force is backhand., right, , , , , frizFarLeft.jpg, The force is backhand., right, 1, 13, 29, 4, 22363073, Wed Nov 15 2017 13:50:02 GMT-0500 (Eastern Standard Time), Ultimate_Frisbee, 60
, , , , , , , , , , , , left, 1, 0.8520000000000323, , , , , , , , , , , , frizNearLeft.jpg, The force is home., left, , , , , frizNearLeft.jpg, The force is home., left, 1, 14, 30, 10, 22363073, Wed Nov 15 2017 13:50:02 GMT-0500 (Eastern Standard Time), Ultimate_Frisbee, 60
, , , , , , , , , , , , right, 1, 0.9139999999999873, , , , , , , , , , , , frizFarRight.jpg, The force is home., right, , , , , frizFarRight.jpg, The force is home., right, 1, 15, 31, 9, 22363073, Wed Nov 15 2017 13:50:02 GMT-0500 (Eastern Standard Time), Ultimate_Frisbee, 60
, , , , , , , , , , , , left, 1, 0.7169999999999845, , , , , , , , , , , , frizNearRight.jpg, The force is away., left, , , , , frizNearRight.jpg, The force is away., left, 2, 0, 32, 15, 22363073, Wed Nov 15 2017 13:50:02 GMT-0500 (Eastern Standard Time), Ultimate_Frisbee, 60
, , , , , , , , , , , , left, 1, 1.268000000000029, , , , , , , , , , , , frizNearLeft.jpg, The force is backhand., left, , , , , frizNearLeft.jpg, The force is backhand., left, 2, 1, 33, 6, 22363073, Wed Nov 15 2017 13:50:02 GMT-0500 (Eastern Standard Time), Ultimate_Frisbee, 60
, , , , , , , , , , , , right, 1, 0.9350000000000023, , , , , , , , , , , , frizNearRight.jpg, The force is forehand., right, , , , , frizNearRight.jpg, The force is forehand., right, 2, 2, 34, 3, 22363073, Wed Nov 15 2017 13:50:02 GMT-0500 (Eastern Standard Time), Ultimate_Frisbee, 60
, , , , , , , , , , , , right, 1, 0.8860000000000241, , , , , , , , , , , , frizNearLeft.jpg, The force is away., right, , , , , frizNearLeft.jpg, The force is away., right, 2, 3, 35, 14, 22363073, Wed Nov 15 2017 13:50:02 GMT-0500 (Eastern Standard Time), Ultimate_Frisbee, 60
, , , , , , , , , , , , left, 1, 0.8019999999999641, , , , , , , , , , , , frizFarRight.jpg, The force is away., left, , , , , frizFarRight.jpg, The force is away., left, 2, 4, 36, 13, 22363073, Wed Nov 15 2017 13:50:02 GMT-0500 (Eastern Standard Time), Ultimate_Frisbee, 60
, , , , , , , , , , , , right, 1, 0.8180000000000405, , , , , , , , , , , , frizFarRight.jpg, The force is home., right, , , , , frizFarRight.jpg, The force is home., right, 2, 5, 37, 9, 22363073, Wed Nov 15 2017 13:50:02 GMT-0500 (Eastern Standard Time), Ultimate_Frisbee, 60
, , , , , , , , , , , , left, 1, 1.3039999999999736, , , , , , , , , , , , frizFarLeft.jpg, The force is forehand., left, , , , , frizFarLeft.jpg, The force is forehand., left, 2, 6, 38, 0, 22363073, Wed Nov 15 2017 13:50:02 GMT-0500 (Eastern Standard Time), Ultimate_Frisbee, 60
, , , , , , , , , , , , right, 1, 0.867999999999995, , , , , , , , , , , , frizFarLeft.jpg, The force is backhand., right, , , , , frizFarLeft.jpg, The force is backhand., right, 2, 7, 39, 4, 22363073, Wed Nov 15 2017 13:50:02 GMT-0500 (Eastern Standard Time), Ultimate_Frisbee, 60
, , , , , , , , , , , , left, 1, 0.8690000000000282, , , , , , , , , , , , frizFarRight.jpg, The force is forehand., left, , , , , frizFarRight.jpg, The force is forehand., left, 2, 8, 40, 1, 22363073, Wed Nov 15 2017 13:50:02 GMT-0500 (Eastern Standard Time), Ultimate_Frisbee, 60
, , , , , , , , , , , , right, 1, 0.75, , , , , , , , , , , , frizFarLeft.jpg, The force is away., right, , , , , frizFarLeft.jpg, The force is away., right, 2, 9, 41, 12, 22363073, Wed Nov 15 2017 13:50:02 GMT-0500 (Eastern Standard Time), Ultimate_Frisbee, 60
, , , , , , , , , , , , right, 1, 1.266999999999996, , , , , , , , , , , , frizFarRight.jpg, The force is backhand., right, , , , , frizFarRight.jpg, The force is backhand., right, 2, 10, 42, 5, 22363073, Wed Nov 15 2017 13:50:02 GMT-0500 (Eastern Standard Time), Ultimate_Frisbee, 60
, , , , , , , , , , , , right, 1, 1.434000000000026, , , , , , , , , , , , frizNearLeft.jpg, The force is forehand., right, , , , , frizNearLeft.jpg, The force is forehand., right, 2, 11, 43, 2, 22363073, Wed Nov 15 2017 13:50:02 GMT-0500 (Eastern Standard Time), Ultimate_Frisbee, 60
, , , , , , , , , , , , left, 1, 1.0550000000000068, , , , , , , , , , , , frizNearRight.jpg, The force is backhand., left, , , , , frizNearRight.jpg, The force is backhand., left, 2, 12, 44, 7, 22363073, Wed Nov 15 2017 13:50:02 GMT-0500 (Eastern Standard Time), Ultimate_Frisbee, 60
, , , , , , , , , , , , right, 1, 1.0880000000000223, , , , , , , , , , , , frizNearRight.jpg, The force is home., right, , , , , frizNearRight.jpg, The force is home., right, 2, 13, 45, 11, 22363073, Wed Nov 15 2017 13:50:02 GMT-0500 (Eastern Standard Time), Ultimate_Frisbee, 60
, , , , , , , , , , , , left, 1, 1.170000000000016, , , , , , , , , , , , frizNearLeft.jpg, The force is home., left, , , , , frizNearLeft.jpg, The force is home., left, 2, 14, 46, 10, 22363073, Wed Nov 15 2017 13:50:02 GMT-0500 (Eastern Standard Time), Ultimate_Frisbee, 60
, , , , , , , , , , , , left, 1, 1.3199999999999932, , , , , , , , , , , , frizFarLeft.jpg, The force is home., left, , , , , frizFarLeft.jpg, The force is home., left, 2, 15, 47, 8, 22363073, Wed Nov 15 2017 13:50:02 GMT-0500 (Eastern Standard Time), Ultimate_Frisbee, 60
, , , , , , , , , , , , right, 1, 0.9519999999999982, , , , , , , , , , , , frizFarRight.jpg, The force is home., right, , , , , frizFarRight.jpg, The force is home., right, 3, 0, 48, 9, 22363073, Wed Nov 15 2017 13:50:02 GMT-0500 (Eastern Standard Time), Ultimate_Frisbee, 60
, , , , , , , , , , , , left, 1, 1.3009999999999877, , , , , , , , , , , , frizNearRight.jpg, The force is backhand., left, , , , , frizNearRight.jpg, The force is backhand., left, 3, 1, 49, 7, 22363073, Wed Nov 15 2017 13:50:02 GMT-0500 (Eastern Standard Time), Ultimate_Frisbee, 60
, , , , , , , , , , , , left, 1, 0.8670000000000186, , , , , , , , , , , , frizNearRight.jpg, The force is away., left, , , , , frizNearRight.jpg, The force is away., left, 3, 2, 50, 15, 22363073, Wed Nov 15 2017 13:50:02 GMT-0500 (Eastern Standard Time), Ultimate_Frisbee, 60
, , , , , , , , , , , , right, 1, 0.9199999999999591, , , , , , , , , , , , frizFarLeft.jpg, The force is away., right, , , , , frizFarLeft.jpg, The force is away., right, 3, 3, 51, 12, 22363073, Wed Nov 15 2017 13:50:02 GMT-0500 (Eastern Standard Time), Ultimate_Frisbee, 60
, , , , , , , , , , , , right, 1, 0.7160000000000082, , , , , , , , , , , , frizNearLeft.jpg, The force is forehand., right, , , , , frizNearLeft.jpg, The force is forehand., right, 3, 4, 52, 2, 22363073, Wed Nov 15 2017 13:50:02 GMT-0500 (Eastern Standard Time), Ultimate_Frisbee, 60
, , , , , , , , , , , , right, 1, 1, , , , , , , , , , , , frizFarLeft.jpg, The force is backhand., right, , , , , frizFarLeft.jpg, The force is backhand., right, 3, 5, 53, 4, 22363073, Wed Nov 15 2017 13:50:02 GMT-0500 (Eastern Standard Time), Ultimate_Frisbee, 60
, , , , , , , , , , , , right, 1, 0.9159999999999968, , , , , , , , , , , , frizNearLeft.jpg, The force is away., right, , , , , frizNearLeft.jpg, The force is away., right, 3, 6, 54, 14, 22363073, Wed Nov 15 2017 13:50:02 GMT-0500 (Eastern Standard Time), Ultimate_Frisbee, 60
, , , , , , , , , , , , left, 1, 0.9209999999999923, , , , , , , , , , , , frizFarRight.jpg, The force is away., left, , , , , frizFarRight.jpg, The force is away., left, 3, 7, 55, 13, 22363073, Wed Nov 15 2017 13:50:02 GMT-0500 (Eastern Standard Time), Ultimate_Frisbee, 60
, , , , , , , , , , , , right, 1, 1.149000000000001, , , , , , , , , , , , frizFarRight.jpg, The force is backhand., right, , , , , frizFarRight.jpg, The force is backhand., right, 3, 8, 56, 5, 22363073, Wed Nov 15 2017 13:50:02 GMT-0500 (Eastern Standard Time), Ultimate_Frisbee, 60
, , , , , , , , , , , , left, 1, 1.002999999999986, , , , , , , , , , , , frizFarRight.jpg, The force is forehand., left, , , , , frizFarRight.jpg, The force is forehand., left, 3, 9, 57, 1, 22363073, Wed Nov 15 2017 13:50:02 GMT-0500 (Eastern Standard Time), Ultimate_Frisbee, 60
, , , , , , , , , , , , left, 1, 1.132000000000005, , , , , , , , , , , , frizFarLeft.jpg, The force is forehand., left, , , , , frizFarLeft.jpg, The force is forehand., left, 3, 10, 58, 0, 22363073, Wed Nov 15 2017 13:50:02 GMT-0500 (Eastern Standard Time), Ultimate_Frisbee, 60
, , , , , , , , , , , , right, 1, 1.740000000000009, , , , , , , , , , , , frizNearRight.jpg, The force is home., right, , , , , frizNearRight.jpg, The force is home., right, 3, 11, 59, 11, 22363073, Wed Nov 15 2017 13:50:02 GMT-0500 (Eastern Standard Time), Ultimate_Frisbee, 60
, , , , , , , , , , , , left, 1, 0.8369999999999891, , , , , , , , , , , , frizNearLeft.jpg, The force is home., left, , , , , frizNearLeft.jpg, The force is home., left, 3, 12, 60, 10, 22363073, Wed Nov 15 2017 13:50:02 GMT-0500 (Eastern Standard Time), Ultimate_Frisbee, 60
, , , , , , , , , , , , right, 1, 1.7010000000000218, , , , , , , , , , , , frizNearRight.jpg, The force is forehand., right, , , , , frizNearRight.jpg, The force is forehand., right, 3, 13, 61, 3, 22363073, Wed Nov 15 2017 13:50:02 GMT-0500 (Eastern Standard Time), Ultimate_Frisbee, 60
, , , , , , , , , , , , left, 1, 0.9669999999999845, , , , , , , , , , , , frizFarLeft.jpg, The force is home., left, , , , , frizFarLeft.jpg, The force is home., left, 3, 14, 62, 8, 22363073, Wed Nov 15 2017 13:50:02 GMT-0500 (Eastern Standard Time), Ultimate_Frisbee, 60
, , , , , , , , , , , , left, 1, 1.3029999999999973, , , , , , , , , , , , frizNearLeft.jpg, The force is backhand., left, , , , , frizNearLeft.jpg, The force is backhand., left, 3, 15, 63, 6, 22363073, Wed Nov 15 2017 13:50:02 GMT-0500 (Eastern Standard Time), Ultimate_Frisbee, 60
