Continue.keys, Continue.rt, instructions_response.keys, instructions_response.rt, repeat_response.keys, repeat_response.rt, key_resp_5.keys, key_resp_5.rt, key_resp_2.keys, key_resp_2.rt, key_resp_4.keys, key_resp_4.rt, Trials_response.keys, Trials_response.corr, Trials_response.rt, Block_Continue.keys, Block_Continue.rt, Image, instructions_1_loop.thisRepN, instructions_1_loop.thisTrialN, instructions_1_loop.thisN, instructions_1_loop.thisIndex, instructions_2_repeat.thisRepN, instructions_2_repeat.thisTrialN, instructions_2_repeat.thisN, instructions_2_repeat.thisIndex, stim, prompt, answer, trials_2.thisRepN, trials_2.thisTrialN, trials_2.thisN, trials_2.thisIndex, stim, prompt, answer, trials.thisRepN, trials.thisTrialN, trials.thisN, trials.thisIndex, participant, date, expName, frameRate
space, 1.6880000000000006, space, 9.577000000000002, , , , , , , , , , , , , , Slide1.JPG, 0, 0, 0, 0, , , , , , , , , , , , , , , , , , , 23889243, Tue Aug 29 2017 22:48:35 GMT-0400 (EDT), Ultimate_Frisbee, 60
, , space, 19.604000000000003, , , , , , , , , , , , , , Slide2.JPG, 0, 1, 1, 1, , , , , , , , , , , , , , , , , , , 23889243, Tue Aug 29 2017 22:48:35 GMT-0400 (EDT), Ultimate_Frisbee, 60
, , space, 20.590000000000003, , , , , , , , , , , , , , Slide3.JPG, 0, 2, 2, 2, , , , , , , , , , , , , , , , , , , 23889243, Tue Aug 29 2017 22:48:35 GMT-0400 (EDT), Ultimate_Frisbee, 60
, , space, 6.1499999999999915, , , , , , , , , , , , , , Slide4.JPG, 0, 3, 3, 3, , , , , , , , , , , , , , , , , , , 23889243, Tue Aug 29 2017 22:48:35 GMT-0400 (EDT), Ultimate_Frisbee, 60
, , space, 17.982, , , , , , , , , , , , , , Slide5.JPG, 0, 4, 4, 4, , , , , , , , , , , , , , , , , , , 23889243, Tue Aug 29 2017 22:48:35 GMT-0400 (EDT), Ultimate_Frisbee, 60
, , space, 19.236000000000004, , , , , , , , , , , , , , Slide6.JPG, 0, 5, 5, 5, , , , , , , , , , , , , , , , , , , 23889243, Tue Aug 29 2017 22:48:35 GMT-0400 (EDT), Ultimate_Frisbee, 60
, , space, 15.341999999999999, , , , , , , , , , , , , , Slide7.JPG, 0, 6, 6, 6, , , , , , , , , , , , , , , , , , , 23889243, Tue Aug 29 2017 22:48:35 GMT-0400 (EDT), Ultimate_Frisbee, 60
, , space, 10.729000000000013, , , , , , , , , , , , , , Slide8.JPG, 0, 7, 7, 7, , , , , , , , , , , , , , , , , , , 23889243, Tue Aug 29 2017 22:48:35 GMT-0400 (EDT), Ultimate_Frisbee, 60
, , space, 5.382000000000005, , , , , , , , , , , , , , Slide9.JPG, 0, 8, 8, 8, , , , , , , , , , , , , , , , , , , 23889243, Tue Aug 29 2017 22:48:35 GMT-0400 (EDT), Ultimate_Frisbee, 60
, , space, 5.882999999999981, , , , , , , , , , , , , , Slide10.JPG, 0, 9, 9, 9, , , , , , , , , , , , , , , , , , , 23889243, Tue Aug 29 2017 22:48:35 GMT-0400 (EDT), Ultimate_Frisbee, 60
, , space, 4.712999999999994, , , , , , , , , , , , , , Slide11.JPG, 0, 10, 10, 10, , , , , , , , , , , , , , , , , , , 23889243, Tue Aug 29 2017 22:48:35 GMT-0400 (EDT), Ultimate_Frisbee, 60
, , space, 3.6440000000000055, , , , , , , , , , , , , , Slide12.JPG, 0, 11, 11, 11, , , , , , , , , , , , , , , , , , , 23889243, Tue Aug 29 2017 22:48:35 GMT-0400 (EDT), Ultimate_Frisbee, 60
, , space, 2.106000000000023, , , , , , , , , , , , , , Slide13.JPG, 0, 12, 12, 12, , , , , , , , , , , , , , , , , , , 23889243, Tue Aug 29 2017 22:48:35 GMT-0400 (EDT), Ultimate_Frisbee, 60
, , space, 10.177999999999997, , , , , , , , , , , , , , Slide14.JPG, 0, 13, 13, 13, , , , , , , , , , , , , , , , , , , 23889243, Tue Aug 29 2017 22:48:35 GMT-0400 (EDT), Ultimate_Frisbee, 60
, , , , 0, 7.555000000000007, space, 9.826999999999998, left, 2.6869999999999834, , , , , , , , , , , , , , , , , frizFarLeft.jpg, The force is forehand., left, 0, 0, 0, 0, frizFarLeft.jpg, The force is forehand., left, , , , , 23889243, Tue Aug 29 2017 22:48:35 GMT-0400 (EDT), Ultimate_Frisbee, 60
, , , , , , , , right, 1.9550000000000125, , , , , , , , , , , , , , , , , frizNearLeft.jpg, The force is away., right, 0, 1, 1, 1, frizNearLeft.jpg, The force is away., right, , , , , 23889243, Tue Aug 29 2017 22:48:35 GMT-0400 (EDT), Ultimate_Frisbee, 60
, , , , , , , , right, 1.521000000000015, , , , , , , , , , , , , , , , , frizFarRight.jpg, The force is backhand., right, 0, 2, 2, 2, frizFarRight.jpg, The force is backhand., right, , , , , 23889243, Tue Aug 29 2017 22:48:35 GMT-0400 (EDT), Ultimate_Frisbee, 60
, , , , , , , , right, 1.2520000000000095, , , , , , , , , , , , , , , , , frizNearRight.jpg, The force is home., right, 0, 3, 3, 3, frizNearRight.jpg, The force is home., right, , , , , 23889243, Tue Aug 29 2017 22:48:35 GMT-0400 (EDT), Ultimate_Frisbee, 60
, , , , , , , , left, 1.4699999999999989, , , , , , , , , , , , , , , , , frizNearLeft.jpg, The force is backhand., left, 0, 4, 4, 4, frizNearLeft.jpg, The force is backhand., left, , , , , 23889243, Tue Aug 29 2017 22:48:35 GMT-0400 (EDT), Ultimate_Frisbee, 60
, , , , , , , , right, 0.7019999999999982, , , , , , , , , , , , , , , , , frizNearRight.jpg, The force is home., right, 0, 5, 5, 5, frizNearRight.jpg, The force is home., right, , , , , 23889243, Tue Aug 29 2017 22:48:35 GMT-0400 (EDT), Ultimate_Frisbee, 60
, , , , , , , , right, 2.3220000000000027, , , , , , , , , , , , , , , , , frizNearLeft.jpg, The force is away., right, 0, 6, 6, 6, frizNearLeft.jpg, The force is away., right, , , , , 23889243, Tue Aug 29 2017 22:48:35 GMT-0400 (EDT), Ultimate_Frisbee, 60
, , , , , , , , left, 1.3700000000000045, , , , , , , , , , , , , , , , , frizFarLeft.jpg, The force is forehand., left, 0, 7, 7, 7, frizFarLeft.jpg, The force is forehand., left, , , , , 23889243, Tue Aug 29 2017 22:48:35 GMT-0400 (EDT), Ultimate_Frisbee, 60
, , , , , , , , , , space, 9.994, left, 1, 1.9220000000000255, , , , , , , , , , , , frizFarLeft.jpg, The force is home., left, , , , , frizFarLeft.jpg, The force is home., left, 0, 0, 0, 8, 23889243, Tue Aug 29 2017 22:48:35 GMT-0400 (EDT), Ultimate_Frisbee, 60
, , , , , , , , , , , , left, 1, 1.353999999999985, , , , , , , , , , , , frizNearLeft.jpg, The force is backhand., left, , , , , frizNearLeft.jpg, The force is backhand., left, 0, 1, 1, 6, 23889243, Tue Aug 29 2017 22:48:35 GMT-0400 (EDT), Ultimate_Frisbee, 60
, , , , , , , , , , , , left, 1, 0.9860000000000468, , , , , , , , , , , , frizFarLeft.jpg, The force is forehand., left, , , , , frizFarLeft.jpg, The force is forehand., left, 0, 2, 2, 0, 23889243, Tue Aug 29 2017 22:48:35 GMT-0400 (EDT), Ultimate_Frisbee, 60
, , , , , , , , , , , , left, 1, 1.336999999999989, , , , , , , , , , , , frizNearRight.jpg, The force is backhand., left, , , , , frizNearRight.jpg, The force is backhand., left, 0, 3, 3, 7, 23889243, Tue Aug 29 2017 22:48:35 GMT-0400 (EDT), Ultimate_Frisbee, 60
, , , , , , , , , , , , right, 1, 0.9530000000000314, , , , , , , , , , , , frizNearRight.jpg, The force is forehand., right, , , , , frizNearRight.jpg, The force is forehand., right, 0, 4, 4, 3, 23889243, Tue Aug 29 2017 22:48:35 GMT-0400 (EDT), Ultimate_Frisbee, 60
, , , , , , , , , , , , left, 1, 1.002999999999986, , , , , , , , , , , , frizFarRight.jpg, The force is away., left, , , , , frizFarRight.jpg, The force is away., left, 0, 5, 5, 13, 23889243, Tue Aug 29 2017 22:48:35 GMT-0400 (EDT), Ultimate_Frisbee, 60
, , , , , , , , , , , , left, 1, 0.8360000000000127, , , , , , , , , , , , frizNearRight.jpg, The force is away., left, , , , , frizNearRight.jpg, The force is away., left, 0, 6, 6, 15, 23889243, Tue Aug 29 2017 22:48:35 GMT-0400 (EDT), Ultimate_Frisbee, 60
, , , , , , , , , , , , right, 1, 0.9359999999999786, , , , , , , , , , , , frizNearLeft.jpg, The force is forehand., right, , , , , frizNearLeft.jpg, The force is forehand., right, 0, 7, 7, 2, 23889243, Tue Aug 29 2017 22:48:35 GMT-0400 (EDT), Ultimate_Frisbee, 60
, , , , , , , , , , , , right, 1, 1.620999999999981, , , , , , , , , , , , frizNearRight.jpg, The force is home., right, , , , , frizNearRight.jpg, The force is home., right, 0, 8, 8, 11, 23889243, Tue Aug 29 2017 22:48:35 GMT-0400 (EDT), Ultimate_Frisbee, 60
, , , , , , , , , , , , left, 1, 0.9200000000000159, , , , , , , , , , , , frizNearLeft.jpg, The force is home., left, , , , , frizNearLeft.jpg, The force is home., left, 0, 9, 9, 10, 23889243, Tue Aug 29 2017 22:48:35 GMT-0400 (EDT), Ultimate_Frisbee, 60
, , , , , , , , , , , , right, 1, 0.9189999999999827, , , , , , , , , , , , frizNearLeft.jpg, The force is away., right, , , , , frizNearLeft.jpg, The force is away., right, 0, 10, 10, 14, 23889243, Tue Aug 29 2017 22:48:35 GMT-0400 (EDT), Ultimate_Frisbee, 60
, , , , , , , , , , , , right, 1, 1.3530000000000086, , , , , , , , , , , , frizFarLeft.jpg, The force is backhand., right, , , , , frizFarLeft.jpg, The force is backhand., right, 0, 11, 11, 4, 23889243, Tue Aug 29 2017 22:48:35 GMT-0400 (EDT), Ultimate_Frisbee, 60
, , , , , , , , , , , , left, 1, 1.0360000000000014, , , , , , , , , , , , frizFarRight.jpg, The force is forehand., left, , , , , frizFarRight.jpg, The force is forehand., left, 0, 12, 12, 1, 23889243, Tue Aug 29 2017 22:48:35 GMT-0400 (EDT), Ultimate_Frisbee, 60
, , , , , , , , , , , , right, 1, 0.90300000000002, , , , , , , , , , , , frizFarRight.jpg, The force is backhand., right, , , , , frizFarRight.jpg, The force is backhand., right, 0, 13, 13, 5, 23889243, Tue Aug 29 2017 22:48:35 GMT-0400 (EDT), Ultimate_Frisbee, 60
, , , , , , , , , , , , right, 1, 1.108000000000004, , , , , , , , , , , , frizFarRight.jpg, The force is home., right, , , , , frizFarRight.jpg, The force is home., right, 0, 14, 14, 9, 23889243, Tue Aug 29 2017 22:48:35 GMT-0400 (EDT), Ultimate_Frisbee, 60
, , , , , , , , , , , , left, 0, 0.8349999999999795, , , , , , , , , , , , frizFarLeft.jpg, The force is away., right, , , , , frizFarLeft.jpg, The force is away., right, 0, 15, 15, 12, 23889243, Tue Aug 29 2017 22:48:35 GMT-0400 (EDT), Ultimate_Frisbee, 60
, , , , , , , , , , , , right, 1, 1.8559999999999945, , , , , , , , , , , , frizFarLeft.jpg, The force is backhand., right, , , , , frizFarLeft.jpg, The force is backhand., right, 1, 0, 16, 4, 23889243, Tue Aug 29 2017 22:48:35 GMT-0400 (EDT), Ultimate_Frisbee, 60
, , , , , , , , , , , , right, 1, 1.5550000000000068, , , , , , , , , , , , frizNearLeft.jpg, The force is away., right, , , , , frizNearLeft.jpg, The force is away., right, 1, 1, 17, 14, 23889243, Tue Aug 29 2017 22:48:35 GMT-0400 (EDT), Ultimate_Frisbee, 60
, , , , , , , , , , , , left, 1, 1.9050000000000296, , , , , , , , , , , , frizNearLeft.jpg, The force is backhand., left, , , , , frizNearLeft.jpg, The force is backhand., left, 1, 2, 18, 6, 23889243, Tue Aug 29 2017 22:48:35 GMT-0400 (EDT), Ultimate_Frisbee, 60
, , , , , , , , , , , , left, 1, 1.23599999999999, , , , , , , , , , , , frizNearRight.jpg, The force is away., left, , , , , frizNearRight.jpg, The force is away., left, 1, 3, 19, 15, 23889243, Tue Aug 29 2017 22:48:35 GMT-0400 (EDT), Ultimate_Frisbee, 60
, , , , , , , , , , , , right, 1, 1.252999999999986, , , , , , , , , , , , frizFarLeft.jpg, The force is away., right, , , , , frizFarLeft.jpg, The force is away., right, 1, 4, 20, 12, 23889243, Tue Aug 29 2017 22:48:35 GMT-0400 (EDT), Ultimate_Frisbee, 60
, , , , , , , , , , , , right, 1, 1.0860000000000127, , , , , , , , , , , , frizNearRight.jpg, The force is home., right, , , , , frizNearRight.jpg, The force is home., right, 1, 5, 21, 11, 23889243, Tue Aug 29 2017 22:48:35 GMT-0400 (EDT), Ultimate_Frisbee, 60
, , , , , , , , , , , , left, 1, 1.3029999999999973, , , , , , , , , , , , frizFarLeft.jpg, The force is forehand., left, , , , , frizFarLeft.jpg, The force is forehand., left, 1, 6, 22, 0, 23889243, Tue Aug 29 2017 22:48:35 GMT-0400 (EDT), Ultimate_Frisbee, 60
, , , , , , , , , , , , left, 1, 2.13900000000001, , , , , , , , , , , , frizNearRight.jpg, The force is backhand., left, , , , , frizNearRight.jpg, The force is backhand., left, 1, 7, 23, 7, 23889243, Tue Aug 29 2017 22:48:35 GMT-0400 (EDT), Ultimate_Frisbee, 60
, , , , , , , , , , , , left, 1, 1.4370000000000118, , , , , , , , , , , , frizFarRight.jpg, The force is away., left, , , , , frizFarRight.jpg, The force is away., left, 1, 8, 24, 13, 23889243, Tue Aug 29 2017 22:48:35 GMT-0400 (EDT), Ultimate_Frisbee, 60
, , , , , , , , , , , , left, 1, 0.8020000000000209, , , , , , , , , , , , frizNearLeft.jpg, The force is home., left, , , , , frizNearLeft.jpg, The force is home., left, 1, 9, 25, 10, 23889243, Tue Aug 29 2017 22:48:35 GMT-0400 (EDT), Ultimate_Frisbee, 60
, , , , , , , , , , , , left, 1, 2.1719999999999686, , , , , , , , , , , , frizFarLeft.jpg, The force is home., left, , , , , frizFarLeft.jpg, The force is home., left, 1, 10, 26, 8, 23889243, Tue Aug 29 2017 22:48:35 GMT-0400 (EDT), Ultimate_Frisbee, 60
, , , , , , , , , , , , left, 1, 1.2029999999999745, , , , , , , , , , , , frizFarRight.jpg, The force is forehand., left, , , , , frizFarRight.jpg, The force is forehand., left, 1, 11, 27, 1, 23889243, Tue Aug 29 2017 22:48:35 GMT-0400 (EDT), Ultimate_Frisbee, 60
, , , , , , , , , , , , right, 1, 0.90300000000002, , , , , , , , , , , , frizFarRight.jpg, The force is home., right, , , , , frizFarRight.jpg, The force is home., right, 1, 12, 28, 9, 23889243, Tue Aug 29 2017 22:48:35 GMT-0400 (EDT), Ultimate_Frisbee, 60
, , , , , , , , , , , , right, 1, 1.2040000000000077, , , , , , , , , , , , frizNearRight.jpg, The force is forehand., right, , , , , frizNearRight.jpg, The force is forehand., right, 1, 13, 29, 3, 23889243, Tue Aug 29 2017 22:48:35 GMT-0400 (EDT), Ultimate_Frisbee, 60
, , , , , , , , , , , , right, 1, 0.7899999999999636, , , , , , , , , , , , frizNearLeft.jpg, The force is forehand., right, , , , , frizNearLeft.jpg, The force is forehand., right, 1, 14, 30, 2, 23889243, Tue Aug 29 2017 22:48:35 GMT-0400 (EDT), Ultimate_Frisbee, 60
, , , , , , , , , , , , right, 1, 1.0529999999999973, , , , , , , , , , , , frizFarRight.jpg, The force is backhand., right, , , , , frizFarRight.jpg, The force is backhand., right, 1, 15, 31, 5, 23889243, Tue Aug 29 2017 22:48:35 GMT-0400 (EDT), Ultimate_Frisbee, 60
, , , , , , , , , , , , right, 1, 1.1200000000000045, , , , , , , , , , , , frizFarRight.jpg, The force is home., right, , , , , frizFarRight.jpg, The force is home., right, 2, 0, 32, 9, 23889243, Tue Aug 29 2017 22:48:35 GMT-0400 (EDT), Ultimate_Frisbee, 60
, , , , , , , , , , , , left, 1, 0.8870000000000005, , , , , , , , , , , , frizFarRight.jpg, The force is away., left, , , , , frizFarRight.jpg, The force is away., left, 2, 1, 33, 13, 23889243, Tue Aug 29 2017 22:48:35 GMT-0400 (EDT), Ultimate_Frisbee, 60
, , , , , , , , , , , , right, 1, 0.9519999999999982, , , , , , , , , , , , frizNearRight.jpg, The force is forehand., right, , , , , frizNearRight.jpg, The force is forehand., right, 2, 2, 34, 3, 23889243, Tue Aug 29 2017 22:48:35 GMT-0400 (EDT), Ultimate_Frisbee, 60
, , , , , , , , , , , , left, 1, 1.0020000000000095, , , , , , , , , , , , frizFarLeft.jpg, The force is home., left, , , , , frizFarLeft.jpg, The force is home., left, 2, 3, 35, 8, 23889243, Tue Aug 29 2017 22:48:35 GMT-0400 (EDT), Ultimate_Frisbee, 60
, , , , , , , , , , , , right, 1, 1.136000000000024, , , , , , , , , , , , frizNearRight.jpg, The force is home., right, , , , , frizNearRight.jpg, The force is home., right, 2, 4, 36, 11, 23889243, Tue Aug 29 2017 22:48:35 GMT-0400 (EDT), Ultimate_Frisbee, 60
, , , , , , , , , , , , left, 1, 2.9909999999999854, , , , , , , , , , , , frizNearRight.jpg, The force is backhand., left, , , , , frizNearRight.jpg, The force is backhand., left, 2, 5, 37, 7, 23889243, Tue Aug 29 2017 22:48:35 GMT-0400 (EDT), Ultimate_Frisbee, 60
, , , , , , , , , , , , left, 1, 1.6879999999999882, , , , , , , , , , , , frizNearLeft.jpg, The force is home., left, , , , , frizNearLeft.jpg, The force is home., left, 2, 6, 38, 10, 23889243, Tue Aug 29 2017 22:48:35 GMT-0400 (EDT), Ultimate_Frisbee, 60
, , , , , , , , , , , , right, 1, 1.15300000000002, , , , , , , , , , , , frizFarLeft.jpg, The force is away., right, , , , , frizFarLeft.jpg, The force is away., right, 2, 7, 39, 12, 23889243, Tue Aug 29 2017 22:48:35 GMT-0400 (EDT), Ultimate_Frisbee, 60
, , , , , , , , , , , , left, 1, 2.6070000000000277, , , , , , , , , , , , frizFarRight.jpg, The force is forehand., left, , , , , frizFarRight.jpg, The force is forehand., left, 2, 8, 40, 1, 23889243, Tue Aug 29 2017 22:48:35 GMT-0400 (EDT), Ultimate_Frisbee, 60
, , , , , , , , , , , , right, 1, 0.73599999999999, , , , , , , , , , , , frizNearLeft.jpg, The force is forehand., right, , , , , frizNearLeft.jpg, The force is forehand., right, 2, 9, 41, 2, 23889243, Tue Aug 29 2017 22:48:35 GMT-0400 (EDT), Ultimate_Frisbee, 60
, , , , , , , , , , , , right, 1, 1.2870000000000346, , , , , , , , , , , , frizNearLeft.jpg, The force is away., right, , , , , frizNearLeft.jpg, The force is away., right, 2, 10, 42, 14, 23889243, Tue Aug 29 2017 22:48:35 GMT-0400 (EDT), Ultimate_Frisbee, 60
, , , , , , , , , , , , left, 1, 1.1190000000000282, , , , , , , , , , , , frizNearLeft.jpg, The force is backhand., left, , , , , frizNearLeft.jpg, The force is backhand., left, 2, 11, 43, 6, 23889243, Tue Aug 29 2017 22:48:35 GMT-0400 (EDT), Ultimate_Frisbee, 60
, , , , , , , , , , , , left, 1, 2.4560000000000173, , , , , , , , , , , , frizNearRight.jpg, The force is away., left, , , , , frizNearRight.jpg, The force is away., left, 2, 12, 44, 15, 23889243, Tue Aug 29 2017 22:48:35 GMT-0400 (EDT), Ultimate_Frisbee, 60
, , , , , , , , , , , , left, 1, 1.2030000000000314, , , , , , , , , , , , frizFarLeft.jpg, The force is forehand., left, , , , , frizFarLeft.jpg, The force is forehand., left, 2, 13, 45, 0, 23889243, Tue Aug 29 2017 22:48:35 GMT-0400 (EDT), Ultimate_Frisbee, 60
, , , , , , , , , , , , right, 1, 1.6210000000000377, , , , , , , , , , , , frizFarRight.jpg, The force is backhand., right, , , , , frizFarRight.jpg, The force is backhand., right, 2, 14, 46, 5, 23889243, Tue Aug 29 2017 22:48:35 GMT-0400 (EDT), Ultimate_Frisbee, 60
, , , , , , , , , , , , right, 1, 1.8389999999999986, , , , , , , , , , , , frizFarLeft.jpg, The force is backhand., right, , , , , frizFarLeft.jpg, The force is backhand., right, 2, 15, 47, 4, 23889243, Tue Aug 29 2017 22:48:35 GMT-0400 (EDT), Ultimate_Frisbee, 60
, , , , , , , , , , , , right, 1, 1.2199999999999704, , , , , , , , , , , , frizFarLeft.jpg, The force is away., right, , , , , frizFarLeft.jpg, The force is away., right, 3, 0, 48, 12, 23889243, Tue Aug 29 2017 22:48:35 GMT-0400 (EDT), Ultimate_Frisbee, 60
, , , , , , , , , , , , right, 1, 0.7530000000000427, , , , , , , , , , , , frizNearRight.jpg, The force is home., right, , , , , frizNearRight.jpg, The force is home., right, 3, 1, 49, 11, 23889243, Tue Aug 29 2017 22:48:35 GMT-0400 (EDT), Ultimate_Frisbee, 60
, , , , , , , , , , , , left, 1, 1.3199999999999932, , , , , , , , , , , , frizNearLeft.jpg, The force is backhand., left, , , , , frizNearLeft.jpg, The force is backhand., left, 3, 2, 50, 6, 23889243, Tue Aug 29 2017 22:48:35 GMT-0400 (EDT), Ultimate_Frisbee, 60
, , , , , , , , , , , , left, 1, 1.1860000000000355, , , , , , , , , , , , frizNearLeft.jpg, The force is home., left, , , , , frizNearLeft.jpg, The force is home., left, 3, 3, 51, 10, 23889243, Tue Aug 29 2017 22:48:35 GMT-0400 (EDT), Ultimate_Frisbee, 60
, , , , , , , , , , , , left, 1, 1.8880000000000337, , , , , , , , , , , , frizFarLeft.jpg, The force is forehand., left, , , , , frizFarLeft.jpg, The force is forehand., left, 3, 4, 52, 0, 23889243, Tue Aug 29 2017 22:48:35 GMT-0400 (EDT), Ultimate_Frisbee, 60
, , , , , , , , , , , , right, 1, 1.15300000000002, , , , , , , , , , , , frizNearLeft.jpg, The force is forehand., right, , , , , frizNearLeft.jpg, The force is forehand., right, 3, 5, 53, 2, 23889243, Tue Aug 29 2017 22:48:35 GMT-0400 (EDT), Ultimate_Frisbee, 60
, , , , , , , , , , , , left, 1, 1.5370000000000346, , , , , , , , , , , , frizNearRight.jpg, The force is away., left, , , , , frizNearRight.jpg, The force is away., left, 3, 6, 54, 15, 23889243, Tue Aug 29 2017 22:48:35 GMT-0400 (EDT), Ultimate_Frisbee, 60
, , , , , , , , , , , , right, 1, 0.7860000000000014, , , , , , , , , , , , frizNearLeft.jpg, The force is away., right, , , , , frizNearLeft.jpg, The force is away., right, 3, 7, 55, 14, 23889243, Tue Aug 29 2017 22:48:35 GMT-0400 (EDT), Ultimate_Frisbee, 60
, , , , , , , , , , , , left, 1, 0.8859999999999673, , , , , , , , , , , , frizFarRight.jpg, The force is away., left, , , , , frizFarRight.jpg, The force is away., left, 3, 8, 56, 13, 23889243, Tue Aug 29 2017 22:48:35 GMT-0400 (EDT), Ultimate_Frisbee, 60
, , , , , , , , , , , , right, 1, 1.1569999999999823, , , , , , , , , , , , frizFarRight.jpg, The force is backhand., right, , , , , frizFarRight.jpg, The force is backhand., right, 3, 9, 57, 5, 23889243, Tue Aug 29 2017 22:48:35 GMT-0400 (EDT), Ultimate_Frisbee, 60
, , , , , , , , , , , , left, 1, 1.0079999999999814, , , , , , , , , , , , frizFarLeft.jpg, The force is home., left, , , , , frizFarLeft.jpg, The force is home., left, 3, 10, 58, 8, 23889243, Tue Aug 29 2017 22:48:35 GMT-0400 (EDT), Ultimate_Frisbee, 60
, , , , , , , , , , , , left, 1, 0.7840000000000487, , , , , , , , , , , , frizNearRight.jpg, The force is backhand., left, , , , , frizNearRight.jpg, The force is backhand., left, 3, 11, 59, 7, 23889243, Tue Aug 29 2017 22:48:35 GMT-0400 (EDT), Ultimate_Frisbee, 60
, , , , , , , , , , , , right, 1, 0.6349999999999909, , , , , , , , , , , , frizNearRight.jpg, The force is forehand., right, , , , , frizNearRight.jpg, The force is forehand., right, 3, 12, 60, 3, 23889243, Tue Aug 29 2017 22:48:35 GMT-0400 (EDT), Ultimate_Frisbee, 60
, , , , , , , , , , , , right, 1, 1.4209999999999923, , , , , , , , , , , , frizFarRight.jpg, The force is home., right, , , , , frizFarRight.jpg, The force is home., right, 3, 13, 61, 9, 23889243, Tue Aug 29 2017 22:48:35 GMT-0400 (EDT), Ultimate_Frisbee, 60
, , , , , , , , , , , , left, 1, 1.0530000000000541, , , , , , , , , , , , frizFarRight.jpg, The force is forehand., left, , , , , frizFarRight.jpg, The force is forehand., left, 3, 14, 62, 1, 23889243, Tue Aug 29 2017 22:48:35 GMT-0400 (EDT), Ultimate_Frisbee, 60
, , , , , , , , , , , , right, 1, 0.8519999999999754, , , , , , , , , , , , frizFarLeft.jpg, The force is backhand., right, , , , , frizFarLeft.jpg, The force is backhand., right, 3, 15, 63, 4, 23889243, Tue Aug 29 2017 22:48:35 GMT-0400 (EDT), Ultimate_Frisbee, 60
