Continue.keys, Continue.rt, instructions_response.keys, instructions_response.rt, repeat_response.keys, repeat_response.rt, key_resp_5.keys, key_resp_5.rt, key_resp_2.keys, key_resp_2.rt, key_resp_4.keys, key_resp_4.rt, Trials_response.keys, Trials_response.corr, Trials_response.rt, Block_Continue.keys, Block_Continue.rt, Image, instructions_1_loop.thisRepN, instructions_1_loop.thisTrialN, instructions_1_loop.thisN, instructions_1_loop.thisIndex, instructions_2_repeat.thisRepN, instructions_2_repeat.thisTrialN, instructions_2_repeat.thisN, instructions_2_repeat.thisIndex, stim, prompt, answer, trials_2.thisRepN, trials_2.thisTrialN, trials_2.thisN, trials_2.thisIndex, stim, prompt, answer, trials.thisRepN, trials.thisTrialN, trials.thisN, trials.thisIndex, participant, date, expName, frameRate
space, 1.968, space, 6.728999999999999, , , , , , , , , , , , , , Slide1.JPG, 0, 0, 0, 0, , , , , , , , , , , , , , , , , , , 3880734, Wed Nov 15 2017 15:41:12 GMT-0500 (Eastern Standard Time), Ultimate_Frisbee, 60
, , space, 13.143, , , , , , , , , , , , , , Slide2.JPG, 0, 1, 1, 1, , , , , , , , , , , , , , , , , , , 3880734, Wed Nov 15 2017 15:41:12 GMT-0500 (Eastern Standard Time), Ultimate_Frisbee, 60
, , space, 9.910000000000004, , , , , , , , , , , , , , Slide3.JPG, 0, 2, 2, 2, , , , , , , , , , , , , , , , , , , 3880734, Wed Nov 15 2017 15:41:12 GMT-0500 (Eastern Standard Time), Ultimate_Frisbee, 60
, , space, 17.572000000000003, , , , , , , , , , , , , , Slide4.JPG, 0, 3, 3, 3, , , , , , , , , , , , , , , , , , , 3880734, Wed Nov 15 2017 15:41:12 GMT-0500 (Eastern Standard Time), Ultimate_Frisbee, 60
, , space, 11.307999999999993, , , , , , , , , , , , , , Slide5.JPG, 0, 4, 4, 4, , , , , , , , , , , , , , , , , , , 3880734, Wed Nov 15 2017 15:41:12 GMT-0500 (Eastern Standard Time), Ultimate_Frisbee, 60
, , space, 632.5550000000001, , , , , , , , , , , , , , Slide6.JPG, 0, 5, 5, 5, , , , , , , , , , , , , , , , , , , 3880734, Wed Nov 15 2017 15:41:12 GMT-0500 (Eastern Standard Time), Ultimate_Frisbee, 60
, , space, 9.627000000000066, , , , , , , , , , , , , , Slide7.JPG, 0, 6, 6, 6, , , , , , , , , , , , , , , , , , , 3880734, Wed Nov 15 2017 15:41:12 GMT-0500 (Eastern Standard Time), Ultimate_Frisbee, 60
, , space, 5.629000000000019, , , , , , , , , , , , , , Slide8.JPG, 0, 7, 7, 7, , , , , , , , , , , , , , , , , , , 3880734, Wed Nov 15 2017 15:41:12 GMT-0500 (Eastern Standard Time), Ultimate_Frisbee, 60
, , space, 78.93600000000004, , , , , , , , , , , , , , Slide9.JPG, 0, 8, 8, 8, , , , , , , , , , , , , , , , , , , 3880734, Wed Nov 15 2017 15:41:12 GMT-0500 (Eastern Standard Time), Ultimate_Frisbee, 60
, , space, 5.330000000000041, , , , , , , , , , , , , , Slide10.JPG, 0, 9, 9, 9, , , , , , , , , , , , , , , , , , , 3880734, Wed Nov 15 2017 15:41:12 GMT-0500 (Eastern Standard Time), Ultimate_Frisbee, 60
, , space, 4.866999999999962, , , , , , , , , , , , , , Slide11.JPG, 0, 10, 10, 10, , , , , , , , , , , , , , , , , , , 3880734, Wed Nov 15 2017 15:41:12 GMT-0500 (Eastern Standard Time), Ultimate_Frisbee, 60
, , space, 3.099999999999909, , , , , , , , , , , , , , Slide12.JPG, 0, 11, 11, 11, , , , , , , , , , , , , , , , , , , 3880734, Wed Nov 15 2017 15:41:12 GMT-0500 (Eastern Standard Time), Ultimate_Frisbee, 60
, , space, 4.066000000000031, , , , , , , , , , , , , , Slide13.JPG, 0, 12, 12, 12, , , , , , , , , , , , , , , , , , , 3880734, Wed Nov 15 2017 15:41:12 GMT-0500 (Eastern Standard Time), Ultimate_Frisbee, 60
, , space, 6.1440000000000055, , , , , , , , , , , , , , Slide14.JPG, 0, 13, 13, 13, , , , , , , , , , , , , , , , , , , 3880734, Wed Nov 15 2017 15:41:12 GMT-0500 (Eastern Standard Time), Ultimate_Frisbee, 60
, , , , 0, 19.889999999999986, space, 321.712, left, 8.275000000000091, , , , , , , , , , , , , , , , , frizFarLeft.jpg, The force is forehand., left, 0, 0, 0, 0, frizFarLeft.jpg, The force is forehand., left, , , , , 3880734, Wed Nov 15 2017 15:41:12 GMT-0500 (Eastern Standard Time), Ultimate_Frisbee, 60
, , , , , , , , right, 2.94600000000014, , , , , , , , , , , , , , , , , frizNearLeft.jpg, The force is away., right, 0, 1, 1, 1, frizNearLeft.jpg, The force is away., right, , , , , 3880734, Wed Nov 15 2017 15:41:12 GMT-0500 (Eastern Standard Time), Ultimate_Frisbee, 60
, , , , , , , , right, 4.246000000000095, , , , , , , , , , , , , , , , , frizFarRight.jpg, The force is backhand., right, 0, 2, 2, 2, frizFarRight.jpg, The force is backhand., right, , , , , 3880734, Wed Nov 15 2017 15:41:12 GMT-0500 (Eastern Standard Time), Ultimate_Frisbee, 60
, , , , , , , , right, 2.5800000000001546, , , , , , , , , , , , , , , , , frizNearRight.jpg, The force is home., right, 0, 3, 3, 3, frizNearRight.jpg, The force is home., right, , , , , 3880734, Wed Nov 15 2017 15:41:12 GMT-0500 (Eastern Standard Time), Ultimate_Frisbee, 60
, , , , , , , , left, 1.6089999999999236, , , , , , , , , , , , , , , , , frizNearLeft.jpg, The force is backhand., left, 0, 4, 4, 4, frizNearLeft.jpg, The force is backhand., left, , , , , 3880734, Wed Nov 15 2017 15:41:12 GMT-0500 (Eastern Standard Time), Ultimate_Frisbee, 60
, , , , , , , , right, 1.2540000000001328, , , , , , , , , , , , , , , , , frizNearRight.jpg, The force is home., right, 0, 5, 5, 5, frizNearRight.jpg, The force is home., right, , , , , 3880734, Wed Nov 15 2017 15:41:12 GMT-0500 (Eastern Standard Time), Ultimate_Frisbee, 60
, , , , , , , , right, 1.6990000000000691, , , , , , , , , , , , , , , , , frizNearLeft.jpg, The force is away., right, 0, 6, 6, 6, frizNearLeft.jpg, The force is away., right, , , , , 3880734, Wed Nov 15 2017 15:41:12 GMT-0500 (Eastern Standard Time), Ultimate_Frisbee, 60
, , , , , , , , left, 3.480000000000018, , , , , , , , , , , , , , , , , frizFarLeft.jpg, The force is forehand., left, 0, 7, 7, 7, frizFarLeft.jpg, The force is forehand., left, , , , , 3880734, Wed Nov 15 2017 15:41:12 GMT-0500 (Eastern Standard Time), Ultimate_Frisbee, 60
, , , , , , , , , , space, 342.5519999999999, right, 1, 2.6660000000001673, , , , , , , , , , , , frizFarLeft.jpg, The force is backhand., right, , , , , frizFarLeft.jpg, The force is backhand., right, 0, 0, 0, 4, 3880734, Wed Nov 15 2017 15:41:12 GMT-0500 (Eastern Standard Time), Ultimate_Frisbee, 60
, , , , , , , , , , , , right, 1, 1.68100000000004, , , , , , , , , , , , frizFarLeft.jpg, The force is away., right, , , , , frizFarLeft.jpg, The force is away., right, 0, 1, 1, 12, 3880734, Wed Nov 15 2017 15:41:12 GMT-0500 (Eastern Standard Time), Ultimate_Frisbee, 60
, , , , , , , , , , , , left, 1, 1.7320000000001983, , , , , , , , , , , , frizNearLeft.jpg, The force is backhand., left, , , , , frizNearLeft.jpg, The force is backhand., left, 0, 2, 2, 6, 3880734, Wed Nov 15 2017 15:41:12 GMT-0500 (Eastern Standard Time), Ultimate_Frisbee, 60
, , , , , , , , , , , , right, 1, 1.8330000000000837, , , , , , , , , , , , frizNearLeft.jpg, The force is forehand., right, , , , , frizNearLeft.jpg, The force is forehand., right, 0, 3, 3, 2, 3880734, Wed Nov 15 2017 15:41:12 GMT-0500 (Eastern Standard Time), Ultimate_Frisbee, 60
, , , , , , , , , , , , left, 1, 2.4349999999999454, , , , , , , , , , , , frizFarLeft.jpg, The force is home., left, , , , , frizFarLeft.jpg, The force is home., left, 0, 4, 4, 8, 3880734, Wed Nov 15 2017 15:41:12 GMT-0500 (Eastern Standard Time), Ultimate_Frisbee, 60
, , , , , , , , , , , , right, 1, 1.981999999999971, , , , , , , , , , , , frizFarRight.jpg, The force is backhand., right, , , , , frizFarRight.jpg, The force is backhand., right, 0, 5, 5, 5, 3880734, Wed Nov 15 2017 15:41:12 GMT-0500 (Eastern Standard Time), Ultimate_Frisbee, 60
, , , , , , , , , , , , left, 1, 1.7149999999999181, , , , , , , , , , , , frizNearRight.jpg, The force is backhand., left, , , , , frizNearRight.jpg, The force is backhand., left, 0, 6, 6, 7, 3880734, Wed Nov 15 2017 15:41:12 GMT-0500 (Eastern Standard Time), Ultimate_Frisbee, 60
, , , , , , , , , , , , left, 1, 1.7650000000001, , , , , , , , , , , , frizNearRight.jpg, The force is away., left, , , , , frizNearRight.jpg, The force is away., left, 0, 7, 7, 15, 3880734, Wed Nov 15 2017 15:41:12 GMT-0500 (Eastern Standard Time), Ultimate_Frisbee, 60
, , , , , , , , , , , , right, 1, 1.9650000000001455, , , , , , , , , , , , frizFarRight.jpg, The force is home., right, , , , , frizFarRight.jpg, The force is home., right, 0, 8, 8, 9, 3880734, Wed Nov 15 2017 15:41:12 GMT-0500 (Eastern Standard Time), Ultimate_Frisbee, 60
, , , , , , , , , , , , left, 1, 1.8519999999998618, , , , , , , , , , , , frizFarLeft.jpg, The force is forehand., left, , , , , frizFarLeft.jpg, The force is forehand., left, 0, 9, 9, 0, 3880734, Wed Nov 15 2017 15:41:12 GMT-0500 (Eastern Standard Time), Ultimate_Frisbee, 60
, , , , , , , , , , , , left, 1, 1.5160000000000764, , , , , , , , , , , , frizNearLeft.jpg, The force is home., left, , , , , frizNearLeft.jpg, The force is home., left, 0, 10, 10, 10, 3880734, Wed Nov 15 2017 15:41:12 GMT-0500 (Eastern Standard Time), Ultimate_Frisbee, 60
, , , , , , , , , , , , right, 1, 1.6359999999999673, , , , , , , , , , , , frizNearRight.jpg, The force is home., right, , , , , frizNearRight.jpg, The force is home., right, 0, 11, 11, 11, 3880734, Wed Nov 15 2017 15:41:12 GMT-0500 (Eastern Standard Time), Ultimate_Frisbee, 60
, , , , , , , , , , , , right, 1, 1.3379999999999654, , , , , , , , , , , , frizNearRight.jpg, The force is forehand., right, , , , , frizNearRight.jpg, The force is forehand., right, 0, 12, 12, 3, 3880734, Wed Nov 15 2017 15:41:12 GMT-0500 (Eastern Standard Time), Ultimate_Frisbee, 60
, , , , , , , , , , , , left, 1, 1.2329999999999472, , , , , , , , , , , , frizFarRight.jpg, The force is forehand., left, , , , , frizFarRight.jpg, The force is forehand., left, 0, 13, 13, 1, 3880734, Wed Nov 15 2017 15:41:12 GMT-0500 (Eastern Standard Time), Ultimate_Frisbee, 60
, , , , , , , , , , , , right, 1, 1.566000000000031, , , , , , , , , , , , frizNearLeft.jpg, The force is away., right, , , , , frizNearLeft.jpg, The force is away., right, 0, 14, 14, 14, 3880734, Wed Nov 15 2017 15:41:12 GMT-0500 (Eastern Standard Time), Ultimate_Frisbee, 60
, , , , , , , , , , , , left, 1, 1.4639999999999418, , , , , , , , , , , , frizFarRight.jpg, The force is away., left, , , , , frizFarRight.jpg, The force is away., left, 0, 15, 15, 13, 3880734, Wed Nov 15 2017 15:41:12 GMT-0500 (Eastern Standard Time), Ultimate_Frisbee, 60
, , , , , , , , , , , , right, 1, 1.1990000000000691, , , , , , , , , , , , frizFarLeft.jpg, The force is away., right, , , , , frizFarLeft.jpg, The force is away., right, 1, 0, 16, 12, 3880734, Wed Nov 15 2017 15:41:12 GMT-0500 (Eastern Standard Time), Ultimate_Frisbee, 60
, , , , , , , , , , , , left, 1, 1.5330000000001291, , , , , , , , , , , , frizFarLeft.jpg, The force is forehand., left, , , , , frizFarLeft.jpg, The force is forehand., left, 1, 1, 17, 0, 3880734, Wed Nov 15 2017 15:41:12 GMT-0500 (Eastern Standard Time), Ultimate_Frisbee, 60
, , , , , , , , , , , , right, 1, 1.0489999999999782, , , , , , , , , , , , frizNearRight.jpg, The force is forehand., right, , , , , frizNearRight.jpg, The force is forehand., right, 1, 2, 18, 3, 3880734, Wed Nov 15 2017 15:41:12 GMT-0500 (Eastern Standard Time), Ultimate_Frisbee, 60
, , , , , , , , , , , , left, 1, 1.1489999999998872, , , , , , , , , , , , frizNearRight.jpg, The force is away., left, , , , , frizNearRight.jpg, The force is away., left, 1, 3, 19, 15, 3880734, Wed Nov 15 2017 15:41:12 GMT-0500 (Eastern Standard Time), Ultimate_Frisbee, 60
, , , , , , , , , , , , left, 1, 1.1990000000000691, , , , , , , , , , , , frizNearLeft.jpg, The force is backhand., left, , , , , frizNearLeft.jpg, The force is backhand., left, 1, 4, 20, 6, 3880734, Wed Nov 15 2017 15:41:12 GMT-0500 (Eastern Standard Time), Ultimate_Frisbee, 60
, , , , , , , , , , , , right, 1, 1.4329999999999927, , , , , , , , , , , , frizFarRight.jpg, The force is home., right, , , , , frizFarRight.jpg, The force is home., right, 1, 5, 21, 9, 3880734, Wed Nov 15 2017 15:41:12 GMT-0500 (Eastern Standard Time), Ultimate_Frisbee, 60
, , , , , , , , , , , , right, 1, 1.41599999999994, , , , , , , , , , , , frizNearLeft.jpg, The force is forehand., right, , , , , frizNearLeft.jpg, The force is forehand., right, 1, 6, 22, 2, 3880734, Wed Nov 15 2017 15:41:12 GMT-0500 (Eastern Standard Time), Ultimate_Frisbee, 60
, , , , , , , , , , , , left, 1, 1.3659999999999854, , , , , , , , , , , , frizFarLeft.jpg, The force is home., left, , , , , frizFarLeft.jpg, The force is home., left, 1, 7, 23, 8, 3880734, Wed Nov 15 2017 15:41:12 GMT-0500 (Eastern Standard Time), Ultimate_Frisbee, 60
, , , , , , , , , , , , left, 1, 1.3680000000001655, , , , , , , , , , , , frizFarRight.jpg, The force is away., left, , , , , frizFarRight.jpg, The force is away., left, 1, 8, 24, 13, 3880734, Wed Nov 15 2017 15:41:12 GMT-0500 (Eastern Standard Time), Ultimate_Frisbee, 60
, , , , , , , , , , , , left, 1, 1, , , , , , , , , , , , frizNearLeft.jpg, The force is home., left, , , , , frizNearLeft.jpg, The force is home., left, 1, 9, 25, 10, 3880734, Wed Nov 15 2017 15:41:12 GMT-0500 (Eastern Standard Time), Ultimate_Frisbee, 60
, , , , , , , , , , , , left, 1, 1.1330000000000382, , , , , , , , , , , , frizFarRight.jpg, The force is forehand., left, , , , , frizFarRight.jpg, The force is forehand., left, 1, 10, 26, 1, 3880734, Wed Nov 15 2017 15:41:12 GMT-0500 (Eastern Standard Time), Ultimate_Frisbee, 60
, , , , , , , , , , , , left, 1, 1.5639999999998508, , , , , , , , , , , , frizNearRight.jpg, The force is backhand., left, , , , , frizNearRight.jpg, The force is backhand., left, 1, 11, 27, 7, 3880734, Wed Nov 15 2017 15:41:12 GMT-0500 (Eastern Standard Time), Ultimate_Frisbee, 60
, , , , , , , , , , , , right, 1, 1.5550000000000637, , , , , , , , , , , , frizNearRight.jpg, The force is home., right, , , , , frizNearRight.jpg, The force is home., right, 1, 12, 28, 11, 3880734, Wed Nov 15 2017 15:41:12 GMT-0500 (Eastern Standard Time), Ultimate_Frisbee, 60
, , , , , , , , , , , , right, 1, 1.6159999999999854, , , , , , , , , , , , frizFarRight.jpg, The force is backhand., right, , , , , frizFarRight.jpg, The force is backhand., right, 1, 13, 29, 5, 3880734, Wed Nov 15 2017 15:41:12 GMT-0500 (Eastern Standard Time), Ultimate_Frisbee, 60
, , , , , , , , , , , , right, 1, 1.2840000000001055, , , , , , , , , , , , frizFarLeft.jpg, The force is backhand., right, , , , , frizFarLeft.jpg, The force is backhand., right, 1, 14, 30, 4, 3880734, Wed Nov 15 2017 15:41:12 GMT-0500 (Eastern Standard Time), Ultimate_Frisbee, 60
, , , , , , , , , , , , right, 1, 1.3670000000001892, , , , , , , , , , , , frizNearLeft.jpg, The force is away., right, , , , , frizNearLeft.jpg, The force is away., right, 1, 15, 31, 14, 3880734, Wed Nov 15 2017 15:41:12 GMT-0500 (Eastern Standard Time), Ultimate_Frisbee, 60
, , , , , , , , , , , , left, 1, 1.0170000000000528, , , , , , , , , , , , frizFarRight.jpg, The force is forehand., left, , , , , frizFarRight.jpg, The force is forehand., left, 2, 0, 32, 1, 3880734, Wed Nov 15 2017 15:41:12 GMT-0500 (Eastern Standard Time), Ultimate_Frisbee, 60
, , , , , , , , , , , , left, 1, 1.0979999999999563, , , , , , , , , , , , frizNearRight.jpg, The force is away., left, , , , , frizNearRight.jpg, The force is away., left, 2, 1, 33, 15, 3880734, Wed Nov 15 2017 15:41:12 GMT-0500 (Eastern Standard Time), Ultimate_Frisbee, 60
, , , , , , , , , , , , right, 1, 1.115000000000009, , , , , , , , , , , , frizNearRight.jpg, The force is home., right, , , , , frizNearRight.jpg, The force is home., right, 2, 2, 34, 11, 3880734, Wed Nov 15 2017 15:41:12 GMT-0500 (Eastern Standard Time), Ultimate_Frisbee, 60
, , , , , , , , , , , , left, 1, 1.2330000000001746, , , , , , , , , , , , frizNearRight.jpg, The force is backhand., left, , , , , frizNearRight.jpg, The force is backhand., left, 2, 3, 35, 7, 3880734, Wed Nov 15 2017 15:41:12 GMT-0500 (Eastern Standard Time), Ultimate_Frisbee, 60
, , , , , , , , , , , , left, 1, 2.066000000000031, , , , , , , , , , , , frizFarLeft.jpg, The force is forehand., left, , , , , frizFarLeft.jpg, The force is forehand., left, 2, 4, 36, 0, 3880734, Wed Nov 15 2017 15:41:12 GMT-0500 (Eastern Standard Time), Ultimate_Frisbee, 60
, , , , , , , , , , , , left, 1, 1.2000000000000455, , , , , , , , , , , , frizFarLeft.jpg, The force is home., left, , , , , frizFarLeft.jpg, The force is home., left, 2, 5, 37, 8, 3880734, Wed Nov 15 2017 15:41:12 GMT-0500 (Eastern Standard Time), Ultimate_Frisbee, 60
, , , , , , , , , , , , left, 1, 1.2980000000000018, , , , , , , , , , , , frizNearLeft.jpg, The force is backhand., left, , , , , frizNearLeft.jpg, The force is backhand., left, 2, 6, 38, 6, 3880734, Wed Nov 15 2017 15:41:12 GMT-0500 (Eastern Standard Time), Ultimate_Frisbee, 60
, , , , , , , , , , , , right, 1, 1.2819999999999254, , , , , , , , , , , , frizNearLeft.jpg, The force is forehand., right, , , , , frizNearLeft.jpg, The force is forehand., right, 2, 7, 39, 2, 3880734, Wed Nov 15 2017 15:41:12 GMT-0500 (Eastern Standard Time), Ultimate_Frisbee, 60
, , , , , , , , , , , , right, 1, 1.1490000000001146, , , , , , , , , , , , frizNearRight.jpg, The force is forehand., right, , , , , frizNearRight.jpg, The force is forehand., right, 2, 8, 40, 3, 3880734, Wed Nov 15 2017 15:41:12 GMT-0500 (Eastern Standard Time), Ultimate_Frisbee, 60
, , , , , , , , , , , , right, 1, 1.6320000000000618, , , , , , , , , , , , frizFarRight.jpg, The force is backhand., right, , , , , frizFarRight.jpg, The force is backhand., right, 2, 9, 41, 5, 3880734, Wed Nov 15 2017 15:41:12 GMT-0500 (Eastern Standard Time), Ultimate_Frisbee, 60
, , , , , , , , , , , , left, 1, 1.2380000000000564, , , , , , , , , , , , frizFarRight.jpg, The force is away., left, , , , , frizFarRight.jpg, The force is away., left, 2, 10, 42, 13, 3880734, Wed Nov 15 2017 15:41:12 GMT-0500 (Eastern Standard Time), Ultimate_Frisbee, 60
, , , , , , , , , , , , right, 1, 1.6990000000000691, , , , , , , , , , , , frizFarLeft.jpg, The force is away., right, , , , , frizFarLeft.jpg, The force is away., right, 2, 11, 43, 12, 3880734, Wed Nov 15 2017 15:41:12 GMT-0500 (Eastern Standard Time), Ultimate_Frisbee, 60
, , , , , , , , , , , , right, 1, 1.1479999999999109, , , , , , , , , , , , frizFarLeft.jpg, The force is backhand., right, , , , , frizFarLeft.jpg, The force is backhand., right, 2, 12, 44, 4, 3880734, Wed Nov 15 2017 15:41:12 GMT-0500 (Eastern Standard Time), Ultimate_Frisbee, 60
, , , , , , , , , , , , right, 1, 1.1330000000000382, , , , , , , , , , , , frizNearLeft.jpg, The force is away., right, , , , , frizNearLeft.jpg, The force is away., right, 2, 13, 45, 14, 3880734, Wed Nov 15 2017 15:41:12 GMT-0500 (Eastern Standard Time), Ultimate_Frisbee, 60
, , , , , , , , , , , , right, 1, 1.2160000000001219, , , , , , , , , , , , frizFarRight.jpg, The force is home., right, , , , , frizFarRight.jpg, The force is home., right, 2, 14, 46, 9, 3880734, Wed Nov 15 2017 15:41:12 GMT-0500 (Eastern Standard Time), Ultimate_Frisbee, 60
, , , , , , , , , , , , left, 1, 6.048000000000002, , , , , , , , , , , , frizNearLeft.jpg, The force is home., left, , , , , frizNearLeft.jpg, The force is home., left, 2, 15, 47, 10, 3880734, Wed Nov 15 2017 15:41:12 GMT-0500 (Eastern Standard Time), Ultimate_Frisbee, 60
, , , , , , , , , , , , left, 1, 3.5300000000002, , , , , , , , , , , , frizFarRight.jpg, The force is forehand., left, , , , , frizFarRight.jpg, The force is forehand., left, 3, 0, 48, 1, 3880734, Wed Nov 15 2017 15:41:12 GMT-0500 (Eastern Standard Time), Ultimate_Frisbee, 60
, , , , , , , , , , , , left, 1, 2.8320000000001073, , , , , , , , , , , , frizNearLeft.jpg, The force is home., left, , , , , frizNearLeft.jpg, The force is home., left, 3, 1, 49, 10, 3880734, Wed Nov 15 2017 15:41:12 GMT-0500 (Eastern Standard Time), Ultimate_Frisbee, 60
, , , , , , , , , , , , right, 1, 2.1310000000000855, , , , , , , , , , , , frizFarLeft.jpg, The force is backhand., right, , , , , frizFarLeft.jpg, The force is backhand., right, 3, 2, 50, 4, 3880734, Wed Nov 15 2017 15:41:12 GMT-0500 (Eastern Standard Time), Ultimate_Frisbee, 60
, , , , , , , , , , , , right, 1, 3.6959999999999127, , , , , , , , , , , , frizNearRight.jpg, The force is home., right, , , , , frizNearRight.jpg, The force is home., right, 3, 3, 51, 11, 3880734, Wed Nov 15 2017 15:41:12 GMT-0500 (Eastern Standard Time), Ultimate_Frisbee, 60
, , , , , , , , , , , , right, 1, 4.729000000000042, , , , , , , , , , , , frizNearLeft.jpg, The force is away., right, , , , , frizNearLeft.jpg, The force is away., right, 3, 4, 52, 14, 3880734, Wed Nov 15 2017 15:41:12 GMT-0500 (Eastern Standard Time), Ultimate_Frisbee, 60
, , , , , , , , , , , , left, 1, 2.7649999999998727, , , , , , , , , , , , frizFarRight.jpg, The force is away., left, , , , , frizFarRight.jpg, The force is away., left, 3, 5, 53, 13, 3880734, Wed Nov 15 2017 15:41:12 GMT-0500 (Eastern Standard Time), Ultimate_Frisbee, 60
, , , , , , , , , , , , left, 1, 4.946999999999889, , , , , , , , , , , , frizNearRight.jpg, The force is backhand., left, , , , , frizNearRight.jpg, The force is backhand., left, 3, 6, 54, 7, 3880734, Wed Nov 15 2017 15:41:12 GMT-0500 (Eastern Standard Time), Ultimate_Frisbee, 60
, , , , , , , , , , , , right, 1, 1.93100000000004, , , , , , , , , , , , frizFarRight.jpg, The force is backhand., right, , , , , frizFarRight.jpg, The force is backhand., right, 3, 7, 55, 5, 3880734, Wed Nov 15 2017 15:41:12 GMT-0500 (Eastern Standard Time), Ultimate_Frisbee, 60
, , , , , , , , , , , , left, 1, 2.8969999999999345, , , , , , , , , , , , frizFarLeft.jpg, The force is forehand., left, , , , , frizFarLeft.jpg, The force is forehand., left, 3, 8, 56, 0, 3880734, Wed Nov 15 2017 15:41:12 GMT-0500 (Eastern Standard Time), Ultimate_Frisbee, 60
, , , , , , , , , , , , left, 1, 1.3170000000000073, , , , , , , , , , , , frizNearLeft.jpg, The force is backhand., left, , , , , frizNearLeft.jpg, The force is backhand., left, 3, 9, 57, 6, 3880734, Wed Nov 15 2017 15:41:12 GMT-0500 (Eastern Standard Time), Ultimate_Frisbee, 60
, , , , , , , , , , , , right, 1, 1.83199999999988, , , , , , , , , , , , frizNearLeft.jpg, The force is forehand., right, , , , , frizNearLeft.jpg, The force is forehand., right, 3, 10, 58, 2, 3880734, Wed Nov 15 2017 15:41:12 GMT-0500 (Eastern Standard Time), Ultimate_Frisbee, 60
, , , , , , , , , , , , right, 1, 1.1330000000000382, , , , , , , , , , , , frizNearRight.jpg, The force is forehand., right, , , , , frizNearRight.jpg, The force is forehand., right, 3, 11, 59, 3, 3880734, Wed Nov 15 2017 15:41:12 GMT-0500 (Eastern Standard Time), Ultimate_Frisbee, 60
, , , , , , , , , , , , right, 1, 1.33199999999988, , , , , , , , , , , , frizFarLeft.jpg, The force is away., right, , , , , frizFarLeft.jpg, The force is away., right, 3, 12, 60, 12, 3880734, Wed Nov 15 2017 15:41:12 GMT-0500 (Eastern Standard Time), Ultimate_Frisbee, 60
, , , , , , , , , , , , left, 1, 0.8999999999998636, , , , , , , , , , , , frizFarLeft.jpg, The force is home., left, , , , , frizFarLeft.jpg, The force is home., left, 3, 13, 61, 8, 3880734, Wed Nov 15 2017 15:41:12 GMT-0500 (Eastern Standard Time), Ultimate_Frisbee, 60
, , , , , , , , , , , , left, 1, 1.3140000000000782, , , , , , , , , , , , frizNearRight.jpg, The force is away., left, , , , , frizNearRight.jpg, The force is away., left, 3, 14, 62, 15, 3880734, Wed Nov 15 2017 15:41:12 GMT-0500 (Eastern Standard Time), Ultimate_Frisbee, 60
, , , , , , , , , , , , right, 1, 1.7150000000001455, , , , , , , , , , , , frizFarRight.jpg, The force is home., right, , , , , frizFarRight.jpg, The force is home., right, 3, 15, 63, 9, 3880734, Wed Nov 15 2017 15:41:12 GMT-0500 (Eastern Standard Time), Ultimate_Frisbee, 60
