Continue.keys, Continue.rt, instructions_response.keys, instructions_response.rt, repeat_response.keys, repeat_response.rt, key_resp_5.keys, key_resp_5.rt, key_resp_2.keys, key_resp_2.rt, key_resp_4.keys, key_resp_4.rt, Trials_response.keys, Trials_response.corr, Trials_response.rt, Block_Continue.keys, Block_Continue.rt, Image, instructions_1_loop.thisRepN, instructions_1_loop.thisTrialN, instructions_1_loop.thisN, instructions_1_loop.thisIndex, instructions_2_repeat.thisRepN, instructions_2_repeat.thisTrialN, instructions_2_repeat.thisN, instructions_2_repeat.thisIndex, stim, prompt, answer, trials_2.thisRepN, trials_2.thisTrialN, trials_2.thisN, trials_2.thisIndex, stim, prompt, answer, trials.thisRepN, trials.thisTrialN, trials.thisN, trials.thisIndex, participant, date, expName, frameRate
space, 1.4169999999999998, space, 1.2500000000000009, , , , , , , , , , , , , , Slide1.JPG, 0, 0, 0, 0, , , , , , , , , , , , , , , , , , , 40321903, Mon Aug 21 2017 12:54:14 GMT-0400 (Eastern Daylight Time), Ultimate_Frisbee, 60
, , space, 19.316000000000003, , , , , , , , , , , , , , Slide2.JPG, 0, 1, 1, 1, , , , , , , , , , , , , , , , , , , 40321903, Mon Aug 21 2017 12:54:14 GMT-0400 (Eastern Daylight Time), Ultimate_Frisbee, 60
, , space, 3.8669999999999973, , , , , , , , , , , , , , Slide3.JPG, 0, 2, 2, 2, , , , , , , , , , , , , , , , , , , 40321903, Mon Aug 21 2017 12:54:14 GMT-0400 (Eastern Daylight Time), Ultimate_Frisbee, 60
, , space, 0.9329999999999998, , , , , , , , , , , , , , Slide4.JPG, 0, 3, 3, 3, , , , , , , , , , , , , , , , , , , 40321903, Mon Aug 21 2017 12:54:14 GMT-0400 (Eastern Daylight Time), Ultimate_Frisbee, 60
, , space, 0.28299999999999415, , , , , , , , , , , , , , Slide5.JPG, 0, 4, 4, 4, , , , , , , , , , , , , , , , , , , 40321903, Mon Aug 21 2017 12:54:14 GMT-0400 (Eastern Daylight Time), Ultimate_Frisbee, 60
, , space, 6.233000000000004, , , , , , , , , , , , , , Slide6.JPG, 0, 5, 5, 5, , , , , , , , , , , , , , , , , , , 40321903, Mon Aug 21 2017 12:54:14 GMT-0400 (Eastern Daylight Time), Ultimate_Frisbee, 60
, , space, 0.6839999999999975, , , , , , , , , , , , , , Slide7.JPG, 0, 6, 6, 6, , , , , , , , , , , , , , , , , , , 40321903, Mon Aug 21 2017 12:54:14 GMT-0400 (Eastern Daylight Time), Ultimate_Frisbee, 60
, , space, 6.916000000000004, , , , , , , , , , , , , , Slide8.JPG, 0, 7, 7, 7, , , , , , , , , , , , , , , , , , , 40321903, Mon Aug 21 2017 12:54:14 GMT-0400 (Eastern Daylight Time), Ultimate_Frisbee, 60
, , space, 3.300999999999995, , , , , , , , , , , , , , Slide9.JPG, 0, 8, 8, 8, , , , , , , , , , , , , , , , , , , 40321903, Mon Aug 21 2017 12:54:14 GMT-0400 (Eastern Daylight Time), Ultimate_Frisbee, 60
, , space, 2.5829999999999984, , , , , , , , , , , , , , Slide10.JPG, 0, 9, 9, 9, , , , , , , , , , , , , , , , , , , 40321903, Mon Aug 21 2017 12:54:14 GMT-0400 (Eastern Daylight Time), Ultimate_Frisbee, 60
, , space, 0.2669999999999959, , , , , , , , , , , , , , Slide11.JPG, 0, 10, 10, 10, , , , , , , , , , , , , , , , , , , 40321903, Mon Aug 21 2017 12:54:14 GMT-0400 (Eastern Daylight Time), Ultimate_Frisbee, 60
, , space, 1.198999999999998, , , , , , , , , , , , , , Slide12.JPG, 0, 11, 11, 11, , , , , , , , , , , , , , , , , , , 40321903, Mon Aug 21 2017 12:54:14 GMT-0400 (Eastern Daylight Time), Ultimate_Frisbee, 60
, , space, 2.284000000000006, , , , , , , , , , , , , , Slide13.JPG, 0, 12, 12, 12, , , , , , , , , , , , , , , , , , , 40321903, Mon Aug 21 2017 12:54:14 GMT-0400 (Eastern Daylight Time), Ultimate_Frisbee, 60
, , space, 0.20000000000000284, , , , , , , , , , , , , , Slide14.JPG, 0, 13, 13, 13, , , , , , , , , , , , , , , , , , , 40321903, Mon Aug 21 2017 12:54:14 GMT-0400 (Eastern Daylight Time), Ultimate_Frisbee, 60
, , , , 0, 1.0160000000000053, space, 0.25, left, 2.8999999999999915, , , , , , , , , , , , , , , , , frizFarLeft.jpg, The force is forehand., left, 0, 0, 0, 0, frizFarLeft.jpg, The force is forehand., left, , , , , 40321903, Mon Aug 21 2017 12:54:14 GMT-0400 (Eastern Daylight Time), Ultimate_Frisbee, 60
, , , , , , , , right, 0.9830000000000041, , , , , , , , , , , , , , , , , frizNearLeft.jpg, The force is away., right, 0, 1, 1, 1, frizNearLeft.jpg, The force is away., right, , , , , 40321903, Mon Aug 21 2017 12:54:14 GMT-0400 (Eastern Daylight Time), Ultimate_Frisbee, 60
, , , , , , , , right, 2.649000000000001, , , , , , , , , , , , , , , , , frizFarRight.jpg, The force is backhand., right, 0, 2, 2, 2, frizFarRight.jpg, The force is backhand., right, , , , , 40321903, Mon Aug 21 2017 12:54:14 GMT-0400 (Eastern Daylight Time), Ultimate_Frisbee, 60
, , , , , , , , right, 1.0490000000000066, , , , , , , , , , , , , , , , , frizNearRight.jpg, The force is home., right, 0, 3, 3, 3, frizNearRight.jpg, The force is home., right, , , , , 40321903, Mon Aug 21 2017 12:54:14 GMT-0400 (Eastern Daylight Time), Ultimate_Frisbee, 60
, , , , , , , , left, 1.5499999999999972, , , , , , , , , , , , , , , , , frizNearLeft.jpg, The force is backhand., left, 0, 4, 4, 4, frizNearLeft.jpg, The force is backhand., left, , , , , 40321903, Mon Aug 21 2017 12:54:14 GMT-0400 (Eastern Daylight Time), Ultimate_Frisbee, 60
, , , , , , , , right, 1.2339999999999947, , , , , , , , , , , , , , , , , frizNearRight.jpg, The force is home., right, 0, 5, 5, 5, frizNearRight.jpg, The force is home., right, , , , , 40321903, Mon Aug 21 2017 12:54:14 GMT-0400 (Eastern Daylight Time), Ultimate_Frisbee, 60
, , , , , , , , right, 1.1820000000000022, , , , , , , , , , , , , , , , , frizNearLeft.jpg, The force is away., right, 0, 6, 6, 6, frizNearLeft.jpg, The force is away., right, , , , , 40321903, Mon Aug 21 2017 12:54:14 GMT-0400 (Eastern Daylight Time), Ultimate_Frisbee, 60
, , , , , , , , left, 1.6000000000000085, , , , , , , , , , , , , , , , , frizFarLeft.jpg, The force is forehand., left, 0, 7, 7, 7, frizFarLeft.jpg, The force is forehand., left, , , , , 40321903, Mon Aug 21 2017 12:54:14 GMT-0400 (Eastern Daylight Time), Ultimate_Frisbee, 60
, , , , , , , , , , space, 7.0989999999999895, right, 1, 1.0159999999999911, , , , , , , , , , , , frizFarLeft.jpg, The force is away., right, , , , , frizFarLeft.jpg, The force is away., right, 0, 0, 0, 12, 40321903, Mon Aug 21 2017 12:54:14 GMT-0400 (Eastern Daylight Time), Ultimate_Frisbee, 60
, , , , , , , , , , , , right, 1, 0.9000000000000057, , , , , , , , , , , , frizNearRight.jpg, The force is home., right, , , , , frizNearRight.jpg, The force is home., right, 0, 1, 1, 11, 40321903, Mon Aug 21 2017 12:54:14 GMT-0400 (Eastern Daylight Time), Ultimate_Frisbee, 60
, , , , , , , , , , , , left, 1, 0.914999999999992, , , , , , , , , , , , frizFarRight.jpg, The force is away., left, , , , , frizFarRight.jpg, The force is away., left, 0, 2, 2, 13, 40321903, Mon Aug 21 2017 12:54:14 GMT-0400 (Eastern Daylight Time), Ultimate_Frisbee, 60
, , , , , , , , , , , , left, 1, 0.8000000000000114, , , , , , , , , , , , frizNearLeft.jpg, The force is home., left, , , , , frizNearLeft.jpg, The force is home., left, 0, 3, 3, 10, 40321903, Mon Aug 21 2017 12:54:14 GMT-0400 (Eastern Daylight Time), Ultimate_Frisbee, 60
, , , , , , , , , , , , left, 1, 1.5989999999999895, , , , , , , , , , , , frizFarRight.jpg, The force is forehand., left, , , , , frizFarRight.jpg, The force is forehand., left, 0, 4, 4, 1, 40321903, Mon Aug 21 2017 12:54:14 GMT-0400 (Eastern Daylight Time), Ultimate_Frisbee, 60
, , , , , , , , , , , , left, 1, 2.1500000000000057, , , , , , , , , , , , frizNearRight.jpg, The force is backhand., left, , , , , frizNearRight.jpg, The force is backhand., left, 0, 5, 5, 7, 40321903, Mon Aug 21 2017 12:54:14 GMT-0400 (Eastern Daylight Time), Ultimate_Frisbee, 60
, , , , , , , , , , , , right, 1, 1.2160000000000082, , , , , , , , , , , , frizNearLeft.jpg, The force is forehand., right, , , , , frizNearLeft.jpg, The force is forehand., right, 0, 6, 6, 2, 40321903, Mon Aug 21 2017 12:54:14 GMT-0400 (Eastern Daylight Time), Ultimate_Frisbee, 60
, , , , , , , , , , , , left, 1, 0.8990000000000009, , , , , , , , , , , , frizNearRight.jpg, The force is away., left, , , , , frizNearRight.jpg, The force is away., left, 0, 7, 7, 15, 40321903, Mon Aug 21 2017 12:54:14 GMT-0400 (Eastern Daylight Time), Ultimate_Frisbee, 60
, , , , , , , , , , , , right, 1, 0.8669999999999902, , , , , , , , , , , , frizFarRight.jpg, The force is home., right, , , , , frizFarRight.jpg, The force is home., right, 0, 8, 8, 9, 40321903, Mon Aug 21 2017 12:54:14 GMT-0400 (Eastern Daylight Time), Ultimate_Frisbee, 60
, , , , , , , , , , , , left, 1, 2.149000000000001, , , , , , , , , , , , frizNearLeft.jpg, The force is backhand., left, , , , , frizNearLeft.jpg, The force is backhand., left, 0, 9, 9, 6, 40321903, Mon Aug 21 2017 12:54:14 GMT-0400 (Eastern Daylight Time), Ultimate_Frisbee, 60
, , , , , , , , , , , , left, 1, 1.899000000000001, , , , , , , , , , , , frizFarLeft.jpg, The force is forehand., left, , , , , frizFarLeft.jpg, The force is forehand., left, 0, 10, 10, 0, 40321903, Mon Aug 21 2017 12:54:14 GMT-0400 (Eastern Daylight Time), Ultimate_Frisbee, 60
, , , , , , , , , , , , right, 1, 1.6169999999999902, , , , , , , , , , , , frizNearRight.jpg, The force is forehand., right, , , , , frizNearRight.jpg, The force is forehand., right, 0, 11, 11, 3, 40321903, Mon Aug 21 2017 12:54:14 GMT-0400 (Eastern Daylight Time), Ultimate_Frisbee, 60
, , , , , , , , , , , , right, 1, 1.9819999999999993, , , , , , , , , , , , frizNearLeft.jpg, The force is away., right, , , , , frizNearLeft.jpg, The force is away., right, 0, 12, 12, 14, 40321903, Mon Aug 21 2017 12:54:14 GMT-0400 (Eastern Daylight Time), Ultimate_Frisbee, 60
, , , , , , , , , , , , left, 1, 0.8499999999999943, , , , , , , , , , , , frizFarLeft.jpg, The force is home., left, , , , , frizFarLeft.jpg, The force is home., left, 0, 13, 13, 8, 40321903, Mon Aug 21 2017 12:54:14 GMT-0400 (Eastern Daylight Time), Ultimate_Frisbee, 60
, , , , , , , , , , , , right, 1, 2.5490000000000066, , , , , , , , , , , , frizFarRight.jpg, The force is backhand., right, , , , , frizFarRight.jpg, The force is backhand., right, 0, 14, 14, 5, 40321903, Mon Aug 21 2017 12:54:14 GMT-0400 (Eastern Daylight Time), Ultimate_Frisbee, 60
, , , , , , , , , , , , left, 0, 1.8000000000000114, , , , , , , , , , , , frizFarLeft.jpg, The force is backhand., right, , , , , frizFarLeft.jpg, The force is backhand., right, 0, 15, 15, 4, 40321903, Mon Aug 21 2017 12:54:14 GMT-0400 (Eastern Daylight Time), Ultimate_Frisbee, 60
, , , , , , , , , , , , right, 1, 0.8829999999999814, , , , , , , , , , , , frizNearRight.jpg, The force is home., right, , , , , frizNearRight.jpg, The force is home., right, 1, 0, 16, 11, 40321903, Mon Aug 21 2017 12:54:14 GMT-0400 (Eastern Daylight Time), Ultimate_Frisbee, 60
, , , , , , , , , , , , left, 1, 1.1340000000000146, , , , , , , , , , , , frizNearLeft.jpg, The force is home., left, , , , , frizNearLeft.jpg, The force is home., left, 1, 1, 17, 10, 40321903, Mon Aug 21 2017 12:54:14 GMT-0400 (Eastern Daylight Time), Ultimate_Frisbee, 60
, , , , , , , , , , , , right, 0, 1.9989999999999952, , , , , , , , , , , , frizFarLeft.jpg, The force is forehand., left, , , , , frizFarLeft.jpg, The force is forehand., left, 1, 2, 18, 0, 40321903, Mon Aug 21 2017 12:54:14 GMT-0400 (Eastern Daylight Time), Ultimate_Frisbee, 60
, , , , , , , , , , , , right, 1, 2.1990000000000123, , , , , , , , , , , , frizFarRight.jpg, The force is backhand., right, , , , , frizFarRight.jpg, The force is backhand., right, 1, 3, 19, 5, 40321903, Mon Aug 21 2017 12:54:14 GMT-0400 (Eastern Daylight Time), Ultimate_Frisbee, 60
, , , , , , , , , , , , right, 1, 1.3319999999999936, , , , , , , , , , , , frizNearLeft.jpg, The force is forehand., right, , , , , frizNearLeft.jpg, The force is forehand., right, 1, 4, 20, 2, 40321903, Mon Aug 21 2017 12:54:14 GMT-0400 (Eastern Daylight Time), Ultimate_Frisbee, 60
, , , , , , , , , , , , right, 1, 1.766999999999996, , , , , , , , , , , , frizNearLeft.jpg, The force is away., right, , , , , frizNearLeft.jpg, The force is away., right, 1, 5, 21, 14, 40321903, Mon Aug 21 2017 12:54:14 GMT-0400 (Eastern Daylight Time), Ultimate_Frisbee, 60
, , , , , , , , , , , , left, 1, 1.1659999999999968, , , , , , , , , , , , frizNearLeft.jpg, The force is backhand., left, , , , , frizNearLeft.jpg, The force is backhand., left, 1, 6, 22, 6, 40321903, Mon Aug 21 2017 12:54:14 GMT-0400 (Eastern Daylight Time), Ultimate_Frisbee, 60
, , , , , , , , , , , , left, 1, 1.3660000000000139, , , , , , , , , , , , frizFarRight.jpg, The force is forehand., left, , , , , frizFarRight.jpg, The force is forehand., left, 1, 7, 23, 1, 40321903, Mon Aug 21 2017 12:54:14 GMT-0400 (Eastern Daylight Time), Ultimate_Frisbee, 60
, , , , , , , , , , , , right, 1, 1.9489999999999839, , , , , , , , , , , , frizFarLeft.jpg, The force is backhand., right, , , , , frizFarLeft.jpg, The force is backhand., right, 1, 8, 24, 4, 40321903, Mon Aug 21 2017 12:54:14 GMT-0400 (Eastern Daylight Time), Ultimate_Frisbee, 60
, , , , , , , , , , , , left, 1, 1.0670000000000073, , , , , , , , , , , , frizFarLeft.jpg, The force is home., left, , , , , frizFarLeft.jpg, The force is home., left, 1, 9, 25, 8, 40321903, Mon Aug 21 2017 12:54:14 GMT-0400 (Eastern Daylight Time), Ultimate_Frisbee, 60
, , , , , , , , , , , , right, 1, 1.1339999999999861, , , , , , , , , , , , frizNearRight.jpg, The force is forehand., right, , , , , frizNearRight.jpg, The force is forehand., right, 1, 10, 26, 3, 40321903, Mon Aug 21 2017 12:54:14 GMT-0400 (Eastern Daylight Time), Ultimate_Frisbee, 60
, , , , , , , , , , , , left, 1, 1.1670000000000016, , , , , , , , , , , , frizFarRight.jpg, The force is away., left, , , , , frizFarRight.jpg, The force is away., left, 1, 11, 27, 13, 40321903, Mon Aug 21 2017 12:54:14 GMT-0400 (Eastern Daylight Time), Ultimate_Frisbee, 60
, , , , , , , , , , , , right, 1, 1.5500000000000114, , , , , , , , , , , , frizFarLeft.jpg, The force is away., right, , , , , frizFarLeft.jpg, The force is away., right, 1, 12, 28, 12, 40321903, Mon Aug 21 2017 12:54:14 GMT-0400 (Eastern Daylight Time), Ultimate_Frisbee, 60
, , , , , , , , , , , , left, 1, 1.0840000000000032, , , , , , , , , , , , frizNearRight.jpg, The force is away., left, , , , , frizNearRight.jpg, The force is away., left, 1, 13, 29, 15, 40321903, Mon Aug 21 2017 12:54:14 GMT-0400 (Eastern Daylight Time), Ultimate_Frisbee, 60
, , , , , , , , , , , , left, 1, 1.8840000000000146, , , , , , , , , , , , frizNearRight.jpg, The force is backhand., left, , , , , frizNearRight.jpg, The force is backhand., left, 1, 14, 30, 7, 40321903, Mon Aug 21 2017 12:54:14 GMT-0400 (Eastern Daylight Time), Ultimate_Frisbee, 60
, , , , , , , , , , , , right, 1, 1.9170000000000016, , , , , , , , , , , , frizFarRight.jpg, The force is home., right, , , , , frizFarRight.jpg, The force is home., right, 1, 15, 31, 9, 40321903, Mon Aug 21 2017 12:54:14 GMT-0400 (Eastern Daylight Time), Ultimate_Frisbee, 60
, , , , , , , , , , , , left, 1, 0.6170000000000186, , , , , , , , , , , , frizFarLeft.jpg, The force is home., left, , , , , frizFarLeft.jpg, The force is home., left, 2, 0, 32, 8, 40321903, Mon Aug 21 2017 12:54:14 GMT-0400 (Eastern Daylight Time), Ultimate_Frisbee, 60
, , , , , , , , , , , , right, 1, 0.8990000000000009, , , , , , , , , , , , frizNearLeft.jpg, The force is forehand., right, , , , , frizNearLeft.jpg, The force is forehand., right, 2, 1, 33, 2, 40321903, Mon Aug 21 2017 12:54:14 GMT-0400 (Eastern Daylight Time), Ultimate_Frisbee, 60
, , , , , , , , , , , , left, 1, 1.0999999999999943, , , , , , , , , , , , frizNearRight.jpg, The force is away., left, , , , , frizNearRight.jpg, The force is away., left, 2, 2, 34, 15, 40321903, Mon Aug 21 2017 12:54:14 GMT-0400 (Eastern Daylight Time), Ultimate_Frisbee, 60
, , , , , , , , , , , , right, 1, 0.9159999999999968, , , , , , , , , , , , frizNearLeft.jpg, The force is away., right, , , , , frizNearLeft.jpg, The force is away., right, 2, 3, 35, 14, 40321903, Mon Aug 21 2017 12:54:14 GMT-0400 (Eastern Daylight Time), Ultimate_Frisbee, 60
, , , , , , , , , , , , right, 1, 0.8670000000000186, , , , , , , , , , , , frizFarRight.jpg, The force is home., right, , , , , frizFarRight.jpg, The force is home., right, 2, 4, 36, 9, 40321903, Mon Aug 21 2017 12:54:14 GMT-0400 (Eastern Daylight Time), Ultimate_Frisbee, 60
, , , , , , , , , , , , left, 1, 1.8490000000000464, , , , , , , , , , , , frizNearRight.jpg, The force is backhand., left, , , , , frizNearRight.jpg, The force is backhand., left, 2, 5, 37, 7, 40321903, Mon Aug 21 2017 12:54:14 GMT-0400 (Eastern Daylight Time), Ultimate_Frisbee, 60
, , , , , , , , , , , , left, 1, 1.6990000000000123, , , , , , , , , , , , frizFarLeft.jpg, The force is forehand., left, , , , , frizFarLeft.jpg, The force is forehand., left, 2, 6, 38, 0, 40321903, Mon Aug 21 2017 12:54:14 GMT-0400 (Eastern Daylight Time), Ultimate_Frisbee, 60
, , , , , , , , , , , , right, 1, 1.4660000000000082, , , , , , , , , , , , frizFarLeft.jpg, The force is backhand., right, , , , , frizFarLeft.jpg, The force is backhand., right, 2, 7, 39, 4, 40321903, Mon Aug 21 2017 12:54:14 GMT-0400 (Eastern Daylight Time), Ultimate_Frisbee, 60
, , , , , , , , , , , , left, 1, 1.3000000000000114, , , , , , , , , , , , frizNearLeft.jpg, The force is backhand., left, , , , , frizNearLeft.jpg, The force is backhand., left, 2, 8, 40, 6, 40321903, Mon Aug 21 2017 12:54:14 GMT-0400 (Eastern Daylight Time), Ultimate_Frisbee, 60
, , , , , , , , , , , , left, 1, 1.2999999999999545, , , , , , , , , , , , frizFarRight.jpg, The force is forehand., left, , , , , frizFarRight.jpg, The force is forehand., left, 2, 9, 41, 1, 40321903, Mon Aug 21 2017 12:54:14 GMT-0400 (Eastern Daylight Time), Ultimate_Frisbee, 60
, , , , , , , , , , , , left, 1, 1.8320000000000505, , , , , , , , , , , , frizFarRight.jpg, The force is away., left, , , , , frizFarRight.jpg, The force is away., left, 2, 10, 42, 13, 40321903, Mon Aug 21 2017 12:54:14 GMT-0400 (Eastern Daylight Time), Ultimate_Frisbee, 60
, , , , , , , , , , , , left, 1, 0.5659999999999741, , , , , , , , , , , , frizNearLeft.jpg, The force is home., left, , , , , frizNearLeft.jpg, The force is home., left, 2, 11, 43, 10, 40321903, Mon Aug 21 2017 12:54:14 GMT-0400 (Eastern Daylight Time), Ultimate_Frisbee, 60
, , , , , , , , , , , , right, 1, 1.3010000000000446, , , , , , , , , , , , frizFarRight.jpg, The force is backhand., right, , , , , frizFarRight.jpg, The force is backhand., right, 2, 12, 44, 5, 40321903, Mon Aug 21 2017 12:54:14 GMT-0400 (Eastern Daylight Time), Ultimate_Frisbee, 60
, , , , , , , , , , , , right, 1, 1.1170000000000186, , , , , , , , , , , , frizFarLeft.jpg, The force is away., right, , , , , frizFarLeft.jpg, The force is away., right, 2, 13, 45, 12, 40321903, Mon Aug 21 2017 12:54:14 GMT-0400 (Eastern Daylight Time), Ultimate_Frisbee, 60
, , , , , , , , , , , , right, 1, 1.4839999999999804, , , , , , , , , , , , frizNearRight.jpg, The force is home., right, , , , , frizNearRight.jpg, The force is home., right, 2, 14, 46, 11, 40321903, Mon Aug 21 2017 12:54:14 GMT-0400 (Eastern Daylight Time), Ultimate_Frisbee, 60
, , , , , , , , , , , , right, 1, 1.3829999999999814, , , , , , , , , , , , frizNearRight.jpg, The force is forehand., right, , , , , frizNearRight.jpg, The force is forehand., right, 2, 15, 47, 3, 40321903, Mon Aug 21 2017 12:54:14 GMT-0400 (Eastern Daylight Time), Ultimate_Frisbee, 60
, , , , , , , , , , , , right, 1, 1.0330000000000155, , , , , , , , , , , , frizFarLeft.jpg, The force is away., right, , , , , frizFarLeft.jpg, The force is away., right, 3, 0, 48, 12, 40321903, Mon Aug 21 2017 12:54:14 GMT-0400 (Eastern Daylight Time), Ultimate_Frisbee, 60
, , , , , , , , , , , , right, 1, 1.0159999999999627, , , , , , , , , , , , frizFarRight.jpg, The force is home., right, , , , , frizFarRight.jpg, The force is home., right, 3, 1, 49, 9, 40321903, Mon Aug 21 2017 12:54:14 GMT-0400 (Eastern Daylight Time), Ultimate_Frisbee, 60
, , , , , , , , , , , , right, 1, 1.2659999999999627, , , , , , , , , , , , frizNearLeft.jpg, The force is away., right, , , , , frizNearLeft.jpg, The force is away., right, 3, 2, 50, 14, 40321903, Mon Aug 21 2017 12:54:14 GMT-0400 (Eastern Daylight Time), Ultimate_Frisbee, 60
, , , , , , , , , , , , left, 1, 0.8830000000000382, , , , , , , , , , , , frizNearRight.jpg, The force is away., left, , , , , frizNearRight.jpg, The force is away., left, 3, 3, 51, 15, 40321903, Mon Aug 21 2017 12:54:14 GMT-0400 (Eastern Daylight Time), Ultimate_Frisbee, 60
, , , , , , , , , , , , left, 1, 0.7160000000000082, , , , , , , , , , , , frizNearLeft.jpg, The force is home., left, , , , , frizNearLeft.jpg, The force is home., left, 3, 4, 52, 10, 40321903, Mon Aug 21 2017 12:54:14 GMT-0400 (Eastern Daylight Time), Ultimate_Frisbee, 60
, , , , , , , , , , , , right, 1, 0.5830000000000268, , , , , , , , , , , , frizNearRight.jpg, The force is home., right, , , , , frizNearRight.jpg, The force is home., right, 3, 5, 53, 11, 40321903, Mon Aug 21 2017 12:54:14 GMT-0400 (Eastern Daylight Time), Ultimate_Frisbee, 60
, , , , , , , , , , , , right, 1, 0.9669999999999845, , , , , , , , , , , , frizFarRight.jpg, The force is backhand., right, , , , , frizFarRight.jpg, The force is backhand., right, 3, 6, 54, 5, 40321903, Mon Aug 21 2017 12:54:14 GMT-0400 (Eastern Daylight Time), Ultimate_Frisbee, 60
, , , , , , , , , , , , left, 1, 0.6490000000000009, , , , , , , , , , , , frizFarRight.jpg, The force is away., left, , , , , frizFarRight.jpg, The force is away., left, 3, 7, 55, 13, 40321903, Mon Aug 21 2017 12:54:14 GMT-0400 (Eastern Daylight Time), Ultimate_Frisbee, 60
, , , , , , , , , , , , left, 1, 1.5, , , , , , , , , , , , frizNearLeft.jpg, The force is backhand., left, , , , , frizNearLeft.jpg, The force is backhand., left, 3, 8, 56, 6, 40321903, Mon Aug 21 2017 12:54:14 GMT-0400 (Eastern Daylight Time), Ultimate_Frisbee, 60
, , , , , , , , , , , , right, 1, 1.016999999999996, , , , , , , , , , , , frizNearRight.jpg, The force is forehand., right, , , , , frizNearRight.jpg, The force is forehand., right, 3, 9, 57, 3, 40321903, Mon Aug 21 2017 12:54:14 GMT-0400 (Eastern Daylight Time), Ultimate_Frisbee, 60
, , , , , , , , , , , , left, 1, 1.3330000000000268, , , , , , , , , , , , frizFarLeft.jpg, The force is forehand., left, , , , , frizFarLeft.jpg, The force is forehand., left, 3, 10, 58, 0, 40321903, Mon Aug 21 2017 12:54:14 GMT-0400 (Eastern Daylight Time), Ultimate_Frisbee, 60
, , , , , , , , , , , , right, 1, 0.9839999999999804, , , , , , , , , , , , frizNearLeft.jpg, The force is forehand., right, , , , , frizNearLeft.jpg, The force is forehand., right, 3, 11, 59, 2, 40321903, Mon Aug 21 2017 12:54:14 GMT-0400 (Eastern Daylight Time), Ultimate_Frisbee, 60
, , , , , , , , , , , , left, 1, 1.065999999999974, , , , , , , , , , , , frizFarLeft.jpg, The force is home., left, , , , , frizFarLeft.jpg, The force is home., left, 3, 12, 60, 8, 40321903, Mon Aug 21 2017 12:54:14 GMT-0400 (Eastern Daylight Time), Ultimate_Frisbee, 60
, , , , , , , , , , , , left, 1, 1.266999999999996, , , , , , , , , , , , frizFarRight.jpg, The force is forehand., left, , , , , frizFarRight.jpg, The force is forehand., left, 3, 13, 61, 1, 40321903, Mon Aug 21 2017 12:54:14 GMT-0400 (Eastern Daylight Time), Ultimate_Frisbee, 60
, , , , , , , , , , , , right, 1, 0.8159999999999741, , , , , , , , , , , , frizFarLeft.jpg, The force is backhand., right, , , , , frizFarLeft.jpg, The force is backhand., right, 3, 14, 62, 4, 40321903, Mon Aug 21 2017 12:54:14 GMT-0400 (Eastern Daylight Time), Ultimate_Frisbee, 60
, , , , , , , , , , , , left, 1, 2.016999999999996, , , , , , , , , , , , frizNearRight.jpg, The force is backhand., left, , , , , frizNearRight.jpg, The force is backhand., left, 3, 15, 63, 7, 40321903, Mon Aug 21 2017 12:54:14 GMT-0400 (Eastern Daylight Time), Ultimate_Frisbee, 60
