Continue.keys, Continue.rt, instructions_response.keys, instructions_response.rt, repeat_response.keys, repeat_response.rt, key_resp_5.keys, key_resp_5.rt, key_resp_2.keys, key_resp_2.rt, key_resp_4.keys, key_resp_4.rt, Trials_response.keys, Trials_response.corr, Trials_response.rt, Block_Continue.keys, Block_Continue.rt, Image, instructions_1_loop.thisRepN, instructions_1_loop.thisTrialN, instructions_1_loop.thisN, instructions_1_loop.thisIndex, instructions_2_repeat.thisRepN, instructions_2_repeat.thisTrialN, instructions_2_repeat.thisN, instructions_2_repeat.thisIndex, stim, prompt, answer, trials_2.thisRepN, trials_2.thisTrialN, trials_2.thisN, trials_2.thisIndex, stim, prompt, answer, trials.thisRepN, trials.thisTrialN, trials.thisN, trials.thisIndex, participant, date, expName, frameRate
space, 1.3500000000000014, space, 2.666999999999998, , , , , , , , , , , , , , Slide1.JPG, 0, 0, 0, 0, , , , , , , , , , , , , , , , , , , 55124571, Thu Nov 16 2017 10:13:42 GMT-0500 (EST), Ultimate_Frisbee, 60
, , space, 13.851999999999997, , , , , , , , , , , , , , Slide2.JPG, 0, 1, 1, 1, , , , , , , , , , , , , , , , , , , 55124571, Thu Nov 16 2017 10:13:42 GMT-0500 (EST), Ultimate_Frisbee, 60
, , space, 5.7989999999999995, , , , , , , , , , , , , , Slide3.JPG, 0, 2, 2, 2, , , , , , , , , , , , , , , , , , , 55124571, Thu Nov 16 2017 10:13:42 GMT-0500 (EST), Ultimate_Frisbee, 60
, , space, 1.801000000000002, , , , , , , , , , , , , , Slide4.JPG, 0, 3, 3, 3, , , , , , , , , , , , , , , , , , , 55124571, Thu Nov 16 2017 10:13:42 GMT-0500 (EST), Ultimate_Frisbee, 60
, , space, 18.298000000000002, , , , , , , , , , , , , , Slide5.JPG, 0, 4, 4, 4, , , , , , , , , , , , , , , , , , , 55124571, Thu Nov 16 2017 10:13:42 GMT-0500 (EST), Ultimate_Frisbee, 60
, , space, 39.25, , , , , , , , , , , , , , Slide6.JPG, 0, 5, 5, 5, , , , , , , , , , , , , , , , , , , 55124571, Thu Nov 16 2017 10:13:42 GMT-0500 (EST), Ultimate_Frisbee, 60
, , space, 14.037999999999997, , , , , , , , , , , , , , Slide7.JPG, 0, 6, 6, 6, , , , , , , , , , , , , , , , , , , 55124571, Thu Nov 16 2017 10:13:42 GMT-0500 (EST), Ultimate_Frisbee, 60
, , space, 10.217000000000013, , , , , , , , , , , , , , Slide8.JPG, 0, 7, 7, 7, , , , , , , , , , , , , , , , , , , 55124571, Thu Nov 16 2017 10:13:42 GMT-0500 (EST), Ultimate_Frisbee, 60
, , space, 12.967000000000013, , , , , , , , , , , , , , Slide9.JPG, 0, 8, 8, 8, , , , , , , , , , , , , , , , , , , 55124571, Thu Nov 16 2017 10:13:42 GMT-0500 (EST), Ultimate_Frisbee, 60
, , space, 8.282999999999987, , , , , , , , , , , , , , Slide10.JPG, 0, 9, 9, 9, , , , , , , , , , , , , , , , , , , 55124571, Thu Nov 16 2017 10:13:42 GMT-0500 (EST), Ultimate_Frisbee, 60
, , space, 12.466000000000008, , , , , , , , , , , , , , Slide11.JPG, 0, 10, 10, 10, , , , , , , , , , , , , , , , , , , 55124571, Thu Nov 16 2017 10:13:42 GMT-0500 (EST), Ultimate_Frisbee, 60
, , space, 6.501000000000005, , , , , , , , , , , , , , Slide12.JPG, 0, 11, 11, 11, , , , , , , , , , , , , , , , , , , 55124571, Thu Nov 16 2017 10:13:42 GMT-0500 (EST), Ultimate_Frisbee, 60
, , space, 2.75, , , , , , , , , , , , , , Slide13.JPG, 0, 12, 12, 12, , , , , , , , , , , , , , , , , , , 55124571, Thu Nov 16 2017 10:13:42 GMT-0500 (EST), Ultimate_Frisbee, 60
, , space, 3.8479999999999848, , , , , , , , , , , , , , Slide14.JPG, 0, 13, 13, 13, , , , , , , , , , , , , , , , , , , 55124571, Thu Nov 16 2017 10:13:42 GMT-0500 (EST), Ultimate_Frisbee, 60
, , , , 0, 4.015999999999991, space, 4.815999999999974, right, 2.701000000000022, , , , , , , , , , , , , , , , , frizFarLeft.jpg, The force is forehand., left, 0, 0, 0, 0, frizFarLeft.jpg, The force is forehand., left, , , , , 55124571, Thu Nov 16 2017 10:13:42 GMT-0500 (EST), Ultimate_Frisbee, 60
, , , , , , , , right, 1.9329999999999927, , , , , , , , , , , , , , , , , frizNearLeft.jpg, The force is away., right, 0, 1, 1, 1, frizNearLeft.jpg, The force is away., right, , , , , 55124571, Thu Nov 16 2017 10:13:42 GMT-0500 (EST), Ultimate_Frisbee, 60
, , , , , , , , left, 2.233000000000004, , , , , , , , , , , , , , , , , frizFarRight.jpg, The force is backhand., right, 0, 2, 2, 2, frizFarRight.jpg, The force is backhand., right, , , , , 55124571, Thu Nov 16 2017 10:13:42 GMT-0500 (EST), Ultimate_Frisbee, 60
, , , , , , , , left, 2.8160000000000025, , , , , , , , , , , , , , , , , frizNearRight.jpg, The force is home., right, 0, 3, 3, 3, frizNearRight.jpg, The force is home., right, , , , , 55124571, Thu Nov 16 2017 10:13:42 GMT-0500 (EST), Ultimate_Frisbee, 60
, , , , , , , , left, 2.265999999999991, , , , , , , , , , , , , , , , , frizNearLeft.jpg, The force is backhand., left, 0, 4, 4, 4, frizNearLeft.jpg, The force is backhand., left, , , , , 55124571, Thu Nov 16 2017 10:13:42 GMT-0500 (EST), Ultimate_Frisbee, 60
, , , , , , , , right, 1.1660000000000252, , , , , , , , , , , , , , , , , frizNearRight.jpg, The force is home., right, 0, 5, 5, 5, frizNearRight.jpg, The force is home., right, , , , , 55124571, Thu Nov 16 2017 10:13:42 GMT-0500 (EST), Ultimate_Frisbee, 60
, , , , , , , , right, 1.450000000000017, , , , , , , , , , , , , , , , , frizNearLeft.jpg, The force is away., right, 0, 6, 6, 6, frizNearLeft.jpg, The force is away., right, , , , , 55124571, Thu Nov 16 2017 10:13:42 GMT-0500 (EST), Ultimate_Frisbee, 60
, , , , , , , , right, 1.5490000000000066, , , , , , , , , , , , , , , , , frizFarLeft.jpg, The force is forehand., left, 0, 7, 7, 7, frizFarLeft.jpg, The force is forehand., left, , , , , 55124571, Thu Nov 16 2017 10:13:42 GMT-0500 (EST), Ultimate_Frisbee, 60
, , , , , , , , , , space, 7.182999999999993, left, 0, 2.6340000000000146, , , , , , , , , , , , frizFarRight.jpg, The force is backhand., right, , , , , frizFarRight.jpg, The force is backhand., right, 0, 0, 0, 5, 55124571, Thu Nov 16 2017 10:13:42 GMT-0500 (EST), Ultimate_Frisbee, 60
, , , , , , , , , , , , right, 1, 1.315999999999974, , , , , , , , , , , , frizNearLeft.jpg, The force is away., right, , , , , frizNearLeft.jpg, The force is away., right, 0, 1, 1, 14, 55124571, Thu Nov 16 2017 10:13:42 GMT-0500 (EST), Ultimate_Frisbee, 60
, , , , , , , , , , , , right, 1, 0.9499999999999886, , , , , , , , , , , , frizNearRight.jpg, The force is home., right, , , , , frizNearRight.jpg, The force is home., right, 0, 2, 2, 11, 55124571, Thu Nov 16 2017 10:13:42 GMT-0500 (EST), Ultimate_Frisbee, 60
, , , , , , , , , , , , right, 0, 2.9840000000000373, , , , , , , , , , , , frizFarRight.jpg, The force is forehand., left, , , , , frizFarRight.jpg, The force is forehand., left, 0, 3, 3, 1, 55124571, Thu Nov 16 2017 10:13:42 GMT-0500 (EST), Ultimate_Frisbee, 60
, , , , , , , , , , , , right, 0, 3.415999999999997, , , , , , , , , , , , frizNearRight.jpg, The force is backhand., left, , , , , frizNearRight.jpg, The force is backhand., left, 0, 4, 4, 7, 55124571, Thu Nov 16 2017 10:13:42 GMT-0500 (EST), Ultimate_Frisbee, 60
, , , , , , , , , , , , left, 0, 4.116999999999962, , , , , , , , , , , , frizNearLeft.jpg, The force is forehand., right, , , , , frizNearLeft.jpg, The force is forehand., right, 0, 5, 5, 2, 55124571, Thu Nov 16 2017 10:13:42 GMT-0500 (EST), Ultimate_Frisbee, 60
, , , , , , , , , , , , right, 1, 2.6350000000000477, , , , , , , , , , , , frizNearRight.jpg, The force is forehand., right, , , , , frizNearRight.jpg, The force is forehand., right, 0, 6, 6, 3, 55124571, Thu Nov 16 2017 10:13:42 GMT-0500 (EST), Ultimate_Frisbee, 60
, , , , , , , , , , , , right, 1, 2.6339999999999577, , , , , , , , , , , , frizFarLeft.jpg, The force is away., right, , , , , frizFarLeft.jpg, The force is away., right, 0, 7, 7, 12, 55124571, Thu Nov 16 2017 10:13:42 GMT-0500 (EST), Ultimate_Frisbee, 60
, , , , , , , , , , , , right, 0, 4.182000000000016, , , , , , , , , , , , frizNearLeft.jpg, The force is backhand., left, , , , , frizNearLeft.jpg, The force is backhand., left, 0, 8, 8, 6, 55124571, Thu Nov 16 2017 10:13:42 GMT-0500 (EST), Ultimate_Frisbee, 60
, , , , , , , , , , , , left, 1, 2.9320000000000164, , , , , , , , , , , , frizNearRight.jpg, The force is away., left, , , , , frizNearRight.jpg, The force is away., left, 0, 9, 9, 15, 55124571, Thu Nov 16 2017 10:13:42 GMT-0500 (EST), Ultimate_Frisbee, 60
, , , , , , , , , , , , left, 1, 5.0989999999999895, , , , , , , , , , , , frizNearLeft.jpg, The force is home., left, , , , , frizNearLeft.jpg, The force is home., left, 0, 10, 10, 10, 55124571, Thu Nov 16 2017 10:13:42 GMT-0500 (EST), Ultimate_Frisbee, 60
, , , , , , , , , , , , left, 1, 1, , , , , , , , , , , , frizFarRight.jpg, The force is away., left, , , , , frizFarRight.jpg, The force is away., left, 0, 11, 11, 13, 55124571, Thu Nov 16 2017 10:13:42 GMT-0500 (EST), Ultimate_Frisbee, 60
, , , , , , , , , , , , right, 1, 0.8330000000000268, , , , , , , , , , , , frizFarRight.jpg, The force is home., right, , , , , frizFarRight.jpg, The force is home., right, 0, 12, 12, 9, 55124571, Thu Nov 16 2017 10:13:42 GMT-0500 (EST), Ultimate_Frisbee, 60
, , , , , , , , , , , , left, 1, 0.66700000000003, , , , , , , , , , , , frizFarLeft.jpg, The force is home., left, , , , , frizFarLeft.jpg, The force is home., left, 0, 13, 13, 8, 55124571, Thu Nov 16 2017 10:13:42 GMT-0500 (EST), Ultimate_Frisbee, 60
, , , , , , , , , , , , right, 1, 2.166999999999973, , , , , , , , , , , , frizFarLeft.jpg, The force is backhand., right, , , , , frizFarLeft.jpg, The force is backhand., right, 0, 14, 14, 4, 55124571, Thu Nov 16 2017 10:13:42 GMT-0500 (EST), Ultimate_Frisbee, 60
, , , , , , , , , , , , left, 1, 1.8670000000000186, , , , , , , , , , , , frizFarLeft.jpg, The force is forehand., left, , , , , frizFarLeft.jpg, The force is forehand., left, 0, 15, 15, 0, 55124571, Thu Nov 16 2017 10:13:42 GMT-0500 (EST), Ultimate_Frisbee, 60
, , , , , , , , , , , , right, 1, 1.004000000000019, , , , , , , , , , , , frizFarLeft.jpg, The force is away., right, , , , , frizFarLeft.jpg, The force is away., right, 1, 0, 16, 12, 55124571, Thu Nov 16 2017 10:13:42 GMT-0500 (EST), Ultimate_Frisbee, 60
, , , , , , , , , , , , right, 1, 3.484999999999957, , , , , , , , , , , , frizNearRight.jpg, The force is forehand., right, , , , , frizNearRight.jpg, The force is forehand., right, 1, 1, 17, 3, 55124571, Thu Nov 16 2017 10:13:42 GMT-0500 (EST), Ultimate_Frisbee, 60
, , , , , , , , , , , , left, 0, 2.5670000000000073, , , , , , , , , , , , frizFarLeft.jpg, The force is backhand., right, , , , , frizFarLeft.jpg, The force is backhand., right, 1, 2, 18, 4, 55124571, Thu Nov 16 2017 10:13:42 GMT-0500 (EST), Ultimate_Frisbee, 60
, , , , , , , , , , , , left, 1, 1.2169999999999845, , , , , , , , , , , , frizFarLeft.jpg, The force is home., left, , , , , frizFarLeft.jpg, The force is home., left, 1, 3, 19, 8, 55124571, Thu Nov 16 2017 10:13:42 GMT-0500 (EST), Ultimate_Frisbee, 60
, , , , , , , , , , , , right, 1, 3.4160000000000537, , , , , , , , , , , , frizNearLeft.jpg, The force is away., right, , , , , frizNearLeft.jpg, The force is away., right, 1, 4, 20, 14, 55124571, Thu Nov 16 2017 10:13:42 GMT-0500 (EST), Ultimate_Frisbee, 60
, , , , , , , , , , , , left, 1, 2.8319999999999936, , , , , , , , , , , , frizNearLeft.jpg, The force is backhand., left, , , , , frizNearLeft.jpg, The force is backhand., left, 1, 5, 21, 6, 55124571, Thu Nov 16 2017 10:13:42 GMT-0500 (EST), Ultimate_Frisbee, 60
, , , , , , , , , , , , left, 1, 1.0160000000000196, , , , , , , , , , , , frizNearRight.jpg, The force is away., left, , , , , frizNearRight.jpg, The force is away., left, 1, 6, 22, 15, 55124571, Thu Nov 16 2017 10:13:42 GMT-0500 (EST), Ultimate_Frisbee, 60
, , , , , , , , , , , , left, 1, 1.0509999999999877, , , , , , , , , , , , frizNearLeft.jpg, The force is home., left, , , , , frizNearLeft.jpg, The force is home., left, 1, 7, 23, 10, 55124571, Thu Nov 16 2017 10:13:42 GMT-0500 (EST), Ultimate_Frisbee, 60
, , , , , , , , , , , , right, 1, 3.6000000000000227, , , , , , , , , , , , frizFarRight.jpg, The force is backhand., right, , , , , frizFarRight.jpg, The force is backhand., right, 1, 8, 24, 5, 55124571, Thu Nov 16 2017 10:13:42 GMT-0500 (EST), Ultimate_Frisbee, 60
, , , , , , , , , , , , left, 1, 2.333000000000027, , , , , , , , , , , , frizNearRight.jpg, The force is backhand., left, , , , , frizNearRight.jpg, The force is backhand., left, 1, 9, 25, 7, 55124571, Thu Nov 16 2017 10:13:42 GMT-0500 (EST), Ultimate_Frisbee, 60
, , , , , , , , , , , , right, 1, 1.299000000000035, , , , , , , , , , , , frizNearLeft.jpg, The force is forehand., right, , , , , frizNearLeft.jpg, The force is forehand., right, 1, 10, 26, 2, 55124571, Thu Nov 16 2017 10:13:42 GMT-0500 (EST), Ultimate_Frisbee, 60
, , , , , , , , , , , , left, 1, 1.6999999999999886, , , , , , , , , , , , frizFarLeft.jpg, The force is forehand., left, , , , , frizFarLeft.jpg, The force is forehand., left, 1, 11, 27, 0, 55124571, Thu Nov 16 2017 10:13:42 GMT-0500 (EST), Ultimate_Frisbee, 60
, , , , , , , , , , , , right, 1, 1.099999999999966, , , , , , , , , , , , frizNearRight.jpg, The force is home., right, , , , , frizNearRight.jpg, The force is home., right, 1, 12, 28, 11, 55124571, Thu Nov 16 2017 10:13:42 GMT-0500 (EST), Ultimate_Frisbee, 60
, , , , , , , , , , , , right, 1, 1.0330000000000155, , , , , , , , , , , , frizFarRight.jpg, The force is home., right, , , , , frizFarRight.jpg, The force is home., right, 1, 13, 29, 9, 55124571, Thu Nov 16 2017 10:13:42 GMT-0500 (EST), Ultimate_Frisbee, 60
, , , , , , , , , , , , left, 1, 1.4490000000000123, , , , , , , , , , , , frizFarRight.jpg, The force is away., left, , , , , frizFarRight.jpg, The force is away., left, 1, 14, 30, 13, 55124571, Thu Nov 16 2017 10:13:42 GMT-0500 (EST), Ultimate_Frisbee, 60
, , , , , , , , , , , , left, 1, 2.649000000000001, , , , , , , , , , , , frizFarRight.jpg, The force is forehand., left, , , , , frizFarRight.jpg, The force is forehand., left, 1, 15, 31, 1, 55124571, Thu Nov 16 2017 10:13:42 GMT-0500 (EST), Ultimate_Frisbee, 60
, , , , , , , , , , , , right, 1, 1.3319999999999936, , , , , , , , , , , , frizFarLeft.jpg, The force is away., right, , , , , frizFarLeft.jpg, The force is away., right, 2, 0, 32, 12, 55124571, Thu Nov 16 2017 10:13:42 GMT-0500 (EST), Ultimate_Frisbee, 60
, , , , , , , , , , , , left, 1, 1.6329999999999814, , , , , , , , , , , , frizFarRight.jpg, The force is away., left, , , , , frizFarRight.jpg, The force is away., left, 2, 1, 33, 13, 55124571, Thu Nov 16 2017 10:13:42 GMT-0500 (EST), Ultimate_Frisbee, 60
, , , , , , , , , , , , right, 1, 1.0009999999999764, , , , , , , , , , , , frizFarRight.jpg, The force is home., right, , , , , frizFarRight.jpg, The force is home., right, 2, 2, 34, 9, 55124571, Thu Nov 16 2017 10:13:42 GMT-0500 (EST), Ultimate_Frisbee, 60
, , , , , , , , , , , , left, 1, 2.3659999999999854, , , , , , , , , , , , frizFarLeft.jpg, The force is forehand., left, , , , , frizFarLeft.jpg, The force is forehand., left, 2, 3, 35, 0, 55124571, Thu Nov 16 2017 10:13:42 GMT-0500 (EST), Ultimate_Frisbee, 60
, , , , , , , , , , , , left, 1, 1.5339999999999918, , , , , , , , , , , , frizFarRight.jpg, The force is forehand., left, , , , , frizFarRight.jpg, The force is forehand., left, 2, 4, 36, 1, 55124571, Thu Nov 16 2017 10:13:42 GMT-0500 (EST), Ultimate_Frisbee, 60
, , , , , , , , , , , , left, 1, 1.0500000000000114, , , , , , , , , , , , frizFarLeft.jpg, The force is home., left, , , , , frizFarLeft.jpg, The force is home., left, 2, 5, 37, 8, 55124571, Thu Nov 16 2017 10:13:42 GMT-0500 (EST), Ultimate_Frisbee, 60
, , , , , , , , , , , , right, 1, 1, , , , , , , , , , , , frizNearLeft.jpg, The force is away., right, , , , , frizNearLeft.jpg, The force is away., right, 2, 6, 38, 14, 55124571, Thu Nov 16 2017 10:13:42 GMT-0500 (EST), Ultimate_Frisbee, 60
, , , , , , , , , , , , right, 1, 2.5989999999999895, , , , , , , , , , , , frizNearRight.jpg, The force is forehand., right, , , , , frizNearRight.jpg, The force is forehand., right, 2, 7, 39, 3, 55124571, Thu Nov 16 2017 10:13:42 GMT-0500 (EST), Ultimate_Frisbee, 60
, , , , , , , , , , , , left, 1, 0.7989999999999782, , , , , , , , , , , , frizNearLeft.jpg, The force is home., left, , , , , frizNearLeft.jpg, The force is home., left, 2, 8, 40, 10, 55124571, Thu Nov 16 2017 10:13:42 GMT-0500 (EST), Ultimate_Frisbee, 60
, , , , , , , , , , , , right, 1, 1.66700000000003, , , , , , , , , , , , frizFarRight.jpg, The force is backhand., right, , , , , frizFarRight.jpg, The force is backhand., right, 2, 9, 41, 5, 55124571, Thu Nov 16 2017 10:13:42 GMT-0500 (EST), Ultimate_Frisbee, 60
, , , , , , , , , , , , right, 1, 4.4150000000000205, , , , , , , , , , , , frizNearLeft.jpg, The force is forehand., right, , , , , frizNearLeft.jpg, The force is forehand., right, 2, 10, 42, 2, 55124571, Thu Nov 16 2017 10:13:42 GMT-0500 (EST), Ultimate_Frisbee, 60
, , , , , , , , , , , , right, 1, 2.1159999999999854, , , , , , , , , , , , frizFarLeft.jpg, The force is backhand., right, , , , , frizFarLeft.jpg, The force is backhand., right, 2, 11, 43, 4, 55124571, Thu Nov 16 2017 10:13:42 GMT-0500 (EST), Ultimate_Frisbee, 60
, , , , , , , , , , , , right, 1, 0.7660000000000196, , , , , , , , , , , , frizNearRight.jpg, The force is home., right, , , , , frizNearRight.jpg, The force is home., right, 2, 12, 44, 11, 55124571, Thu Nov 16 2017 10:13:42 GMT-0500 (EST), Ultimate_Frisbee, 60
, , , , , , , , , , , , left, 1, 0.5509999999999877, , , , , , , , , , , , frizNearRight.jpg, The force is away., left, , , , , frizNearRight.jpg, The force is away., left, 2, 13, 45, 15, 55124571, Thu Nov 16 2017 10:13:42 GMT-0500 (EST), Ultimate_Frisbee, 60
, , , , , , , , , , , , left, 1, 2.9499999999999886, , , , , , , , , , , , frizNearLeft.jpg, The force is backhand., left, , , , , frizNearLeft.jpg, The force is backhand., left, 2, 14, 46, 6, 55124571, Thu Nov 16 2017 10:13:42 GMT-0500 (EST), Ultimate_Frisbee, 60
, , , , , , , , , , , , left, 1, 3.3829999999999814, , , , , , , , , , , , frizNearRight.jpg, The force is backhand., left, , , , , frizNearRight.jpg, The force is backhand., left, 2, 15, 47, 7, 55124571, Thu Nov 16 2017 10:13:42 GMT-0500 (EST), Ultimate_Frisbee, 60
, , , , , , , , , , , , right, 1, 1.1990000000000123, , , , , , , , , , , , frizNearRight.jpg, The force is forehand., right, , , , , frizNearRight.jpg, The force is forehand., right, 3, 0, 48, 3, 55124571, Thu Nov 16 2017 10:13:42 GMT-0500 (EST), Ultimate_Frisbee, 60
, , , , , , , , , , , , right, 1, 1.233000000000004, , , , , , , , , , , , frizNearLeft.jpg, The force is away., right, , , , , frizNearLeft.jpg, The force is away., right, 3, 1, 49, 14, 55124571, Thu Nov 16 2017 10:13:42 GMT-0500 (EST), Ultimate_Frisbee, 60
, , , , , , , , , , , , left, 1, 0.8999999999999773, , , , , , , , , , , , frizFarLeft.jpg, The force is home., left, , , , , frizFarLeft.jpg, The force is home., left, 3, 2, 50, 8, 55124571, Thu Nov 16 2017 10:13:42 GMT-0500 (EST), Ultimate_Frisbee, 60
, , , , , , , , , , , , left, 1, 1.3170000000000073, , , , , , , , , , , , frizNearRight.jpg, The force is away., left, , , , , frizNearRight.jpg, The force is away., left, 3, 3, 51, 15, 55124571, Thu Nov 16 2017 10:13:42 GMT-0500 (EST), Ultimate_Frisbee, 60
, , , , , , , , , , , , left, 1, 2.016999999999996, , , , , , , , , , , , frizNearLeft.jpg, The force is backhand., left, , , , , frizNearLeft.jpg, The force is backhand., left, 3, 4, 52, 6, 55124571, Thu Nov 16 2017 10:13:42 GMT-0500 (EST), Ultimate_Frisbee, 60
, , , , , , , , , , , , left, 1, 1.2830000000000155, , , , , , , , , , , , frizNearLeft.jpg, The force is home., left, , , , , frizNearLeft.jpg, The force is home., left, 3, 5, 53, 10, 55124571, Thu Nov 16 2017 10:13:42 GMT-0500 (EST), Ultimate_Frisbee, 60
, , , , , , , , , , , , left, 1, 1.9330000000000496, , , , , , , , , , , , frizFarRight.jpg, The force is forehand., left, , , , , frizFarRight.jpg, The force is forehand., left, 3, 6, 54, 1, 55124571, Thu Nov 16 2017 10:13:42 GMT-0500 (EST), Ultimate_Frisbee, 60
, , , , , , , , , , , , left, 1, 0.8340000000000032, , , , , , , , , , , , frizFarRight.jpg, The force is away., left, , , , , frizFarRight.jpg, The force is away., left, 3, 7, 55, 13, 55124571, Thu Nov 16 2017 10:13:42 GMT-0500 (EST), Ultimate_Frisbee, 60
, , , , , , , , , , , , right, 1, 1.6999999999999886, , , , , , , , , , , , frizFarRight.jpg, The force is backhand., right, , , , , frizFarRight.jpg, The force is backhand., right, 3, 8, 56, 5, 55124571, Thu Nov 16 2017 10:13:42 GMT-0500 (EST), Ultimate_Frisbee, 60
, , , , , , , , , , , , right, 1, 1.0840000000000032, , , , , , , , , , , , frizFarLeft.jpg, The force is away., right, , , , , frizFarLeft.jpg, The force is away., right, 3, 9, 57, 12, 55124571, Thu Nov 16 2017 10:13:42 GMT-0500 (EST), Ultimate_Frisbee, 60
, , , , , , , , , , , , left, 1, 1.3500000000000227, , , , , , , , , , , , frizFarLeft.jpg, The force is forehand., left, , , , , frizFarLeft.jpg, The force is forehand., left, 3, 10, 58, 0, 55124571, Thu Nov 16 2017 10:13:42 GMT-0500 (EST), Ultimate_Frisbee, 60
, , , , , , , , , , , , right, 1, 1.266999999999996, , , , , , , , , , , , frizNearRight.jpg, The force is home., right, , , , , frizNearRight.jpg, The force is home., right, 3, 11, 59, 11, 55124571, Thu Nov 16 2017 10:13:42 GMT-0500 (EST), Ultimate_Frisbee, 60
, , , , , , , , , , , , right, 1, 1.0160000000000196, , , , , , , , , , , , frizFarRight.jpg, The force is home., right, , , , , frizFarRight.jpg, The force is home., right, 3, 12, 60, 9, 55124571, Thu Nov 16 2017 10:13:42 GMT-0500 (EST), Ultimate_Frisbee, 60
, , , , , , , , , , , , right, 1, 1.4010000000000105, , , , , , , , , , , , frizFarLeft.jpg, The force is backhand., right, , , , , frizFarLeft.jpg, The force is backhand., right, 3, 13, 61, 4, 55124571, Thu Nov 16 2017 10:13:42 GMT-0500 (EST), Ultimate_Frisbee, 60
, , , , , , , , , , , , left, 1, 1.8000000000000682, , , , , , , , , , , , frizNearRight.jpg, The force is backhand., left, , , , , frizNearRight.jpg, The force is backhand., left, 3, 14, 62, 7, 55124571, Thu Nov 16 2017 10:13:42 GMT-0500 (EST), Ultimate_Frisbee, 60
, , , , , , , , , , , , right, 1, 1.3170000000000073, , , , , , , , , , , , frizNearLeft.jpg, The force is forehand., right, , , , , frizNearLeft.jpg, The force is forehand., right, 3, 15, 63, 2, 55124571, Thu Nov 16 2017 10:13:42 GMT-0500 (EST), Ultimate_Frisbee, 60
