Continue.keys, Continue.rt, instructions_response.keys, instructions_response.rt, repeat_response.keys, repeat_response.rt, key_resp_5.keys, key_resp_5.rt, key_resp_2.keys, key_resp_2.rt, key_resp_4.keys, key_resp_4.rt, Trials_response.keys, Trials_response.corr, Trials_response.rt, Block_Continue.keys, Block_Continue.rt, Image, instructions_1_loop.thisRepN, instructions_1_loop.thisTrialN, instructions_1_loop.thisN, instructions_1_loop.thisIndex, instructions_2_repeat.thisRepN, instructions_2_repeat.thisTrialN, instructions_2_repeat.thisN, instructions_2_repeat.thisIndex, stim, prompt, answer, trials_2.thisRepN, trials_2.thisTrialN, trials_2.thisN, trials_2.thisIndex, stim, prompt, answer, trials.thisRepN, trials.thisTrialN, trials.thisN, trials.thisIndex, participant, date, expName, frameRate
space, 1.048, space, 2.767999999999999, , , , , , , , , , , , , , Slide1.JPG, 0, 0, 0, 0, , , , , , , , , , , , , , , , , , , 55421948, Wed Nov 15 2017 14:47:21 GMT-0500 (Eastern Standard Time), Ultimate_Frisbee, 60
, , space, 9.879999999999999, , , , , , , , , , , , , , Slide2.JPG, 0, 1, 1, 1, , , , , , , , , , , , , , , , , , , 55421948, Wed Nov 15 2017 14:47:21 GMT-0500 (Eastern Standard Time), Ultimate_Frisbee, 60
, , space, 0.46699999999999875, , , , , , , , , , , , , , Slide3.JPG, 0, 2, 2, 2, , , , , , , , , , , , , , , , , , , 55421948, Wed Nov 15 2017 14:47:21 GMT-0500 (Eastern Standard Time), Ultimate_Frisbee, 60
, , space, 0.36699999999999733, , , , , , , , , , , , , , Slide4.JPG, 0, 3, 3, 3, , , , , , , , , , , , , , , , , , , 55421948, Wed Nov 15 2017 14:47:21 GMT-0500 (Eastern Standard Time), Ultimate_Frisbee, 60
, , space, 6.5980000000000025, , , , , , , , , , , , , , Slide5.JPG, 0, 4, 4, 4, , , , , , , , , , , , , , , , , , , 55421948, Wed Nov 15 2017 14:47:21 GMT-0500 (Eastern Standard Time), Ultimate_Frisbee, 60
, , space, 13.661999999999999, , , , , , , , , , , , , , Slide6.JPG, 0, 5, 5, 5, , , , , , , , , , , , , , , , , , , 55421948, Wed Nov 15 2017 14:47:21 GMT-0500 (Eastern Standard Time), Ultimate_Frisbee, 60
, , space, 8.546999999999997, , , , , , , , , , , , , , Slide7.JPG, 0, 6, 6, 6, , , , , , , , , , , , , , , , , , , 55421948, Wed Nov 15 2017 14:47:21 GMT-0500 (Eastern Standard Time), Ultimate_Frisbee, 60
, , space, 4.881999999999991, , , , , , , , , , , , , , Slide8.JPG, 0, 7, 7, 7, , , , , , , , , , , , , , , , , , , 55421948, Wed Nov 15 2017 14:47:21 GMT-0500 (Eastern Standard Time), Ultimate_Frisbee, 60
, , space, 0.3170000000000073, , , , , , , , , , , , , , Slide9.JPG, 0, 8, 8, 8, , , , , , , , , , , , , , , , , , , 55421948, Wed Nov 15 2017 14:47:21 GMT-0500 (Eastern Standard Time), Ultimate_Frisbee, 60
, , space, 2.0819999999999936, , , , , , , , , , , , , , Slide10.JPG, 0, 9, 9, 9, , , , , , , , , , , , , , , , , , , 55421948, Wed Nov 15 2017 14:47:21 GMT-0500 (Eastern Standard Time), Ultimate_Frisbee, 60
, , space, 2.9010000000000105, , , , , , , , , , , , , , Slide11.JPG, 0, 10, 10, 10, , , , , , , , , , , , , , , , , , , 55421948, Wed Nov 15 2017 14:47:21 GMT-0500 (Eastern Standard Time), Ultimate_Frisbee, 60
, , space, 0.1670000000000016, , , , , , , , , , , , , , Slide12.JPG, 0, 11, 11, 11, , , , , , , , , , , , , , , , , , , 55421948, Wed Nov 15 2017 14:47:21 GMT-0500 (Eastern Standard Time), Ultimate_Frisbee, 60
, , space, 0.11599999999999966, , , , , , , , , , , , , , Slide13.JPG, 0, 12, 12, 12, , , , , , , , , , , , , , , , , , , 55421948, Wed Nov 15 2017 14:47:21 GMT-0500 (Eastern Standard Time), Ultimate_Frisbee, 60
, , space, 0.5489999999999924, , , , , , , , , , , , , , Slide14.JPG, 0, 13, 13, 13, , , , , , , , , , , , , , , , , , , 55421948, Wed Nov 15 2017 14:47:21 GMT-0500 (Eastern Standard Time), Ultimate_Frisbee, 60
, , , , 0, 1.0019999999999953, space, 0.6330000000000098, left, 1.1480000000000103, , , , , , , , , , , , , , , , , frizFarLeft.jpg, The force is forehand., left, 0, 0, 0, 0, frizFarLeft.jpg, The force is forehand., left, , , , , 55421948, Wed Nov 15 2017 14:47:21 GMT-0500 (Eastern Standard Time), Ultimate_Frisbee, 60
, , , , , , , , right, 1.081000000000003, , , , , , , , , , , , , , , , , frizNearLeft.jpg, The force is away., right, 0, 1, 1, 1, frizNearLeft.jpg, The force is away., right, , , , , 55421948, Wed Nov 15 2017 14:47:21 GMT-0500 (Eastern Standard Time), Ultimate_Frisbee, 60
, , , , , , , , left, 1.1479999999999961, , , , , , , , , , , , , , , , , frizFarRight.jpg, The force is backhand., right, 0, 2, 2, 2, frizFarRight.jpg, The force is backhand., right, , , , , 55421948, Wed Nov 15 2017 14:47:21 GMT-0500 (Eastern Standard Time), Ultimate_Frisbee, 60
, , , , , , , , right, 0.8979999999999961, , , , , , , , , , , , , , , , , frizNearRight.jpg, The force is home., right, 0, 3, 3, 3, frizNearRight.jpg, The force is home., right, , , , , 55421948, Wed Nov 15 2017 14:47:21 GMT-0500 (Eastern Standard Time), Ultimate_Frisbee, 60
, , , , , , , , left, 1.382000000000005, , , , , , , , , , , , , , , , , frizNearLeft.jpg, The force is backhand., left, 0, 4, 4, 4, frizNearLeft.jpg, The force is backhand., left, , , , , 55421948, Wed Nov 15 2017 14:47:21 GMT-0500 (Eastern Standard Time), Ultimate_Frisbee, 60
, , , , , , , , right, 0.7660000000000053, , , , , , , , , , , , , , , , , frizNearRight.jpg, The force is home., right, 0, 5, 5, 5, frizNearRight.jpg, The force is home., right, , , , , 55421948, Wed Nov 15 2017 14:47:21 GMT-0500 (Eastern Standard Time), Ultimate_Frisbee, 60
, , , , , , , , right, 0.9150000000000063, , , , , , , , , , , , , , , , , frizNearLeft.jpg, The force is away., right, 0, 6, 6, 6, frizNearLeft.jpg, The force is away., right, , , , , 55421948, Wed Nov 15 2017 14:47:21 GMT-0500 (Eastern Standard Time), Ultimate_Frisbee, 60
, , , , , , , , left, 0.8149999999999977, , , , , , , , , , , , , , , , , frizFarLeft.jpg, The force is forehand., left, 0, 7, 7, 7, frizFarLeft.jpg, The force is forehand., left, , , , , 55421948, Wed Nov 15 2017 14:47:21 GMT-0500 (Eastern Standard Time), Ultimate_Frisbee, 60
, , , , , , , , , , space, 2.181999999999988, left, 1, 1.0190000000000055, , , , , , , , , , , , frizFarLeft.jpg, The force is forehand., left, , , , , frizFarLeft.jpg, The force is forehand., left, 0, 0, 0, 0, 55421948, Wed Nov 15 2017 14:47:21 GMT-0500 (Eastern Standard Time), Ultimate_Frisbee, 60
, , , , , , , , , , , , left, 1, 0.7340000000000089, , , , , , , , , , , , frizFarLeft.jpg, The force is home., left, , , , , frizFarLeft.jpg, The force is home., left, 0, 1, 1, 8, 55421948, Wed Nov 15 2017 14:47:21 GMT-0500 (Eastern Standard Time), Ultimate_Frisbee, 60
, , , , , , , , , , , , left, 1, 1.0489999999999782, , , , , , , , , , , , frizNearRight.jpg, The force is away., left, , , , , frizNearRight.jpg, The force is away., left, 0, 2, 2, 15, 55421948, Wed Nov 15 2017 14:47:21 GMT-0500 (Eastern Standard Time), Ultimate_Frisbee, 60
, , , , , , , , , , , , right, 1, 0.5500000000000114, , , , , , , , , , , , frizNearRight.jpg, The force is home., right, , , , , frizNearRight.jpg, The force is home., right, 0, 3, 3, 11, 55421948, Wed Nov 15 2017 14:47:21 GMT-0500 (Eastern Standard Time), Ultimate_Frisbee, 60
, , , , , , , , , , , , left, 1, 1.0819999999999936, , , , , , , , , , , , frizFarRight.jpg, The force is forehand., left, , , , , frizFarRight.jpg, The force is forehand., left, 0, 4, 4, 1, 55421948, Wed Nov 15 2017 14:47:21 GMT-0500 (Eastern Standard Time), Ultimate_Frisbee, 60
, , , , , , , , , , , , right, 1, 0.8660000000000139, , , , , , , , , , , , frizNearRight.jpg, The force is forehand., right, , , , , frizNearRight.jpg, The force is forehand., right, 0, 5, 5, 3, 55421948, Wed Nov 15 2017 14:47:21 GMT-0500 (Eastern Standard Time), Ultimate_Frisbee, 60
, , , , , , , , , , , , left, 1, 0.6490000000000009, , , , , , , , , , , , frizNearLeft.jpg, The force is home., left, , , , , frizNearLeft.jpg, The force is home., left, 0, 6, 6, 10, 55421948, Wed Nov 15 2017 14:47:21 GMT-0500 (Eastern Standard Time), Ultimate_Frisbee, 60
, , , , , , , , , , , , left, 1, 1.3840000000000146, , , , , , , , , , , , frizNearLeft.jpg, The force is backhand., left, , , , , frizNearLeft.jpg, The force is backhand., left, 0, 7, 7, 6, 55421948, Wed Nov 15 2017 14:47:21 GMT-0500 (Eastern Standard Time), Ultimate_Frisbee, 60
, , , , , , , , , , , , right, 1, 1.5020000000000095, , , , , , , , , , , , frizFarRight.jpg, The force is backhand., right, , , , , frizFarRight.jpg, The force is backhand., right, 0, 8, 8, 5, 55421948, Wed Nov 15 2017 14:47:21 GMT-0500 (Eastern Standard Time), Ultimate_Frisbee, 60
, , , , , , , , , , , , right, 1, 1.1339999999999861, , , , , , , , , , , , frizFarLeft.jpg, The force is backhand., right, , , , , frizFarLeft.jpg, The force is backhand., right, 0, 9, 9, 4, 55421948, Wed Nov 15 2017 14:47:21 GMT-0500 (Eastern Standard Time), Ultimate_Frisbee, 60
, , , , , , , , , , , , right, 1, 1.0320000000000107, , , , , , , , , , , , frizFarLeft.jpg, The force is away., right, , , , , frizFarLeft.jpg, The force is away., right, 0, 10, 10, 12, 55421948, Wed Nov 15 2017 14:47:21 GMT-0500 (Eastern Standard Time), Ultimate_Frisbee, 60
, , , , , , , , , , , , right, 1, 1.5149999999999864, , , , , , , , , , , , frizNearLeft.jpg, The force is away., right, , , , , frizNearLeft.jpg, The force is away., right, 0, 11, 11, 14, 55421948, Wed Nov 15 2017 14:47:21 GMT-0500 (Eastern Standard Time), Ultimate_Frisbee, 60
, , , , , , , , , , , , right, 1, 1.5320000000000107, , , , , , , , , , , , frizNearLeft.jpg, The force is forehand., right, , , , , frizNearLeft.jpg, The force is forehand., right, 0, 12, 12, 2, 55421948, Wed Nov 15 2017 14:47:21 GMT-0500 (Eastern Standard Time), Ultimate_Frisbee, 60
, , , , , , , , , , , , right, 1, 0.9000000000000057, , , , , , , , , , , , frizFarRight.jpg, The force is home., right, , , , , frizFarRight.jpg, The force is home., right, 0, 13, 13, 9, 55421948, Wed Nov 15 2017 14:47:21 GMT-0500 (Eastern Standard Time), Ultimate_Frisbee, 60
, , , , , , , , , , , , left, 1, 1.5, , , , , , , , , , , , frizNearRight.jpg, The force is backhand., left, , , , , frizNearRight.jpg, The force is backhand., left, 0, 14, 14, 7, 55421948, Wed Nov 15 2017 14:47:21 GMT-0500 (Eastern Standard Time), Ultimate_Frisbee, 60
, , , , , , , , , , , , left, 1, 1.0330000000000155, , , , , , , , , , , , frizFarRight.jpg, The force is away., left, , , , , frizFarRight.jpg, The force is away., left, 0, 15, 15, 13, 55421948, Wed Nov 15 2017 14:47:21 GMT-0500 (Eastern Standard Time), Ultimate_Frisbee, 60
, , , , , , , , , , , , left, 1, 0.8310000000000173, , , , , , , , , , , , frizNearLeft.jpg, The force is home., left, , , , , frizNearLeft.jpg, The force is home., left, 1, 0, 16, 10, 55421948, Wed Nov 15 2017 14:47:21 GMT-0500 (Eastern Standard Time), Ultimate_Frisbee, 60
, , , , , , , , , , , , left, 0, 1.4159999999999968, , , , , , , , , , , , frizFarRight.jpg, The force is backhand., right, , , , , frizFarRight.jpg, The force is backhand., right, 1, 1, 17, 5, 55421948, Wed Nov 15 2017 14:47:21 GMT-0500 (Eastern Standard Time), Ultimate_Frisbee, 60
, , , , , , , , , , , , right, 1, 1.4819999999999993, , , , , , , , , , , , frizNearRight.jpg, The force is forehand., right, , , , , frizNearRight.jpg, The force is forehand., right, 1, 2, 18, 3, 55421948, Wed Nov 15 2017 14:47:21 GMT-0500 (Eastern Standard Time), Ultimate_Frisbee, 60
, , , , , , , , , , , , right, 1, 1.6499999999999773, , , , , , , , , , , , frizFarLeft.jpg, The force is backhand., right, , , , , frizFarLeft.jpg, The force is backhand., right, 1, 3, 19, 4, 55421948, Wed Nov 15 2017 14:47:21 GMT-0500 (Eastern Standard Time), Ultimate_Frisbee, 60
, , , , , , , , , , , , left, 1, 1.281000000000006, , , , , , , , , , , , frizNearRight.jpg, The force is backhand., left, , , , , frizNearRight.jpg, The force is backhand., left, 1, 4, 20, 7, 55421948, Wed Nov 15 2017 14:47:21 GMT-0500 (Eastern Standard Time), Ultimate_Frisbee, 60
, , , , , , , , , , , , right, 1, 1.1340000000000146, , , , , , , , , , , , frizNearLeft.jpg, The force is away., right, , , , , frizNearLeft.jpg, The force is away., right, 1, 5, 21, 14, 55421948, Wed Nov 15 2017 14:47:21 GMT-0500 (Eastern Standard Time), Ultimate_Frisbee, 60
, , , , , , , , , , , , left, 1, 1.2990000000000066, , , , , , , , , , , , frizFarLeft.jpg, The force is forehand., left, , , , , frizFarLeft.jpg, The force is forehand., left, 1, 6, 22, 0, 55421948, Wed Nov 15 2017 14:47:21 GMT-0500 (Eastern Standard Time), Ultimate_Frisbee, 60
, , , , , , , , , , , , left, 1, 1.4489999999999839, , , , , , , , , , , , frizNearRight.jpg, The force is away., left, , , , , frizNearRight.jpg, The force is away., left, 1, 7, 23, 15, 55421948, Wed Nov 15 2017 14:47:21 GMT-0500 (Eastern Standard Time), Ultimate_Frisbee, 60
, , , , , , , , , , , , right, 1, 1.3319999999999936, , , , , , , , , , , , frizNearLeft.jpg, The force is forehand., right, , , , , frizNearLeft.jpg, The force is forehand., right, 1, 8, 24, 2, 55421948, Wed Nov 15 2017 14:47:21 GMT-0500 (Eastern Standard Time), Ultimate_Frisbee, 60
, , , , , , , , , , , , left, 1, 0.7980000000000018, , , , , , , , , , , , frizFarLeft.jpg, The force is home., left, , , , , frizFarLeft.jpg, The force is home., left, 1, 9, 25, 8, 55421948, Wed Nov 15 2017 14:47:21 GMT-0500 (Eastern Standard Time), Ultimate_Frisbee, 60
, , , , , , , , , , , , right, 1, 0.5510000000000161, , , , , , , , , , , , frizNearRight.jpg, The force is home., right, , , , , frizNearRight.jpg, The force is home., right, 1, 10, 26, 11, 55421948, Wed Nov 15 2017 14:47:21 GMT-0500 (Eastern Standard Time), Ultimate_Frisbee, 60
, , , , , , , , , , , , left, 1, 1.4989999999999952, , , , , , , , , , , , frizNearLeft.jpg, The force is backhand., left, , , , , frizNearLeft.jpg, The force is backhand., left, 1, 11, 27, 6, 55421948, Wed Nov 15 2017 14:47:21 GMT-0500 (Eastern Standard Time), Ultimate_Frisbee, 60
, , , , , , , , , , , , left, 1, 0.9830000000000041, , , , , , , , , , , , frizFarRight.jpg, The force is away., left, , , , , frizFarRight.jpg, The force is away., left, 1, 12, 28, 13, 55421948, Wed Nov 15 2017 14:47:21 GMT-0500 (Eastern Standard Time), Ultimate_Frisbee, 60
, , , , , , , , , , , , right, 1, 0.867999999999995, , , , , , , , , , , , frizFarLeft.jpg, The force is away., right, , , , , frizFarLeft.jpg, The force is away., right, 1, 13, 29, 12, 55421948, Wed Nov 15 2017 14:47:21 GMT-0500 (Eastern Standard Time), Ultimate_Frisbee, 60
, , , , , , , , , , , , left, 1, 1.2509999999999764, , , , , , , , , , , , frizFarRight.jpg, The force is forehand., left, , , , , frizFarRight.jpg, The force is forehand., left, 1, 14, 30, 1, 55421948, Wed Nov 15 2017 14:47:21 GMT-0500 (Eastern Standard Time), Ultimate_Frisbee, 60
, , , , , , , , , , , , right, 1, 0.8329999999999984, , , , , , , , , , , , frizFarRight.jpg, The force is home., right, , , , , frizFarRight.jpg, The force is home., right, 1, 15, 31, 9, 55421948, Wed Nov 15 2017 14:47:21 GMT-0500 (Eastern Standard Time), Ultimate_Frisbee, 60
, , , , , , , , , , , , right, 1, 0.900999999999982, , , , , , , , , , , , frizFarRight.jpg, The force is home., right, , , , , frizFarRight.jpg, The force is home., right, 2, 0, 32, 9, 55421948, Wed Nov 15 2017 14:47:21 GMT-0500 (Eastern Standard Time), Ultimate_Frisbee, 60
, , , , , , , , , , , , left, 1, 0.8169999999999789, , , , , , , , , , , , frizFarRight.jpg, The force is away., left, , , , , frizFarRight.jpg, The force is away., left, 2, 1, 33, 13, 55421948, Wed Nov 15 2017 14:47:21 GMT-0500 (Eastern Standard Time), Ultimate_Frisbee, 60
, , , , , , , , , , , , left, 1, 1.181999999999988, , , , , , , , , , , , frizNearLeft.jpg, The force is backhand., left, , , , , frizNearLeft.jpg, The force is backhand., left, 2, 2, 34, 6, 55421948, Wed Nov 15 2017 14:47:21 GMT-0500 (Eastern Standard Time), Ultimate_Frisbee, 60
, , , , , , , , , , , , right, 1, 1.5200000000000102, , , , , , , , , , , , frizFarRight.jpg, The force is backhand., right, , , , , frizFarRight.jpg, The force is backhand., right, 2, 3, 35, 5, 55421948, Wed Nov 15 2017 14:47:21 GMT-0500 (Eastern Standard Time), Ultimate_Frisbee, 60
, , , , , , , , , , , , right, 1, 0.9659999999999798, , , , , , , , , , , , frizNearLeft.jpg, The force is forehand., right, , , , , frizNearLeft.jpg, The force is forehand., right, 2, 4, 36, 2, 55421948, Wed Nov 15 2017 14:47:21 GMT-0500 (Eastern Standard Time), Ultimate_Frisbee, 60
, , , , , , , , , , , , left, 1, 1.1829999999999927, , , , , , , , , , , , frizNearRight.jpg, The force is backhand., left, , , , , frizNearRight.jpg, The force is backhand., left, 2, 5, 37, 7, 55421948, Wed Nov 15 2017 14:47:21 GMT-0500 (Eastern Standard Time), Ultimate_Frisbee, 60
, , , , , , , , , , , , right, 1, 0.664999999999992, , , , , , , , , , , , frizNearLeft.jpg, The force is away., right, , , , , frizNearLeft.jpg, The force is away., right, 2, 6, 38, 14, 55421948, Wed Nov 15 2017 14:47:21 GMT-0500 (Eastern Standard Time), Ultimate_Frisbee, 60
, , , , , , , , , , , , left, 1, 0.83299999999997, , , , , , , , , , , , frizFarLeft.jpg, The force is home., left, , , , , frizFarLeft.jpg, The force is home., left, 2, 7, 39, 8, 55421948, Wed Nov 15 2017 14:47:21 GMT-0500 (Eastern Standard Time), Ultimate_Frisbee, 60
, , , , , , , , , , , , right, 1, 1.4669999999999845, , , , , , , , , , , , frizFarLeft.jpg, The force is backhand., right, , , , , frizFarLeft.jpg, The force is backhand., right, 2, 8, 40, 4, 55421948, Wed Nov 15 2017 14:47:21 GMT-0500 (Eastern Standard Time), Ultimate_Frisbee, 60
, , , , , , , , , , , , left, 1, 1.0330000000000155, , , , , , , , , , , , frizFarLeft.jpg, The force is forehand., left, , , , , frizFarLeft.jpg, The force is forehand., left, 2, 9, 41, 0, 55421948, Wed Nov 15 2017 14:47:21 GMT-0500 (Eastern Standard Time), Ultimate_Frisbee, 60
, , , , , , , , , , , , right, 1, 0.83299999999997, , , , , , , , , , , , frizFarLeft.jpg, The force is away., right, , , , , frizFarLeft.jpg, The force is away., right, 2, 10, 42, 12, 55421948, Wed Nov 15 2017 14:47:21 GMT-0500 (Eastern Standard Time), Ultimate_Frisbee, 60
, , , , , , , , , , , , left, 1, 1.3850000000000477, , , , , , , , , , , , frizNearRight.jpg, The force is away., left, , , , , frizNearRight.jpg, The force is away., left, 2, 11, 43, 15, 55421948, Wed Nov 15 2017 14:47:21 GMT-0500 (Eastern Standard Time), Ultimate_Frisbee, 60
, , , , , , , , , , , , left, 1, 1.4320000000000164, , , , , , , , , , , , frizFarRight.jpg, The force is forehand., left, , , , , frizFarRight.jpg, The force is forehand., left, 2, 12, 44, 1, 55421948, Wed Nov 15 2017 14:47:21 GMT-0500 (Eastern Standard Time), Ultimate_Frisbee, 60
, , , , , , , , , , , , left, 1, 0.7830000000000155, , , , , , , , , , , , frizNearLeft.jpg, The force is home., left, , , , , frizNearLeft.jpg, The force is home., left, 2, 13, 45, 10, 55421948, Wed Nov 15 2017 14:47:21 GMT-0500 (Eastern Standard Time), Ultimate_Frisbee, 60
, , , , , , , , , , , , right, 1, 1.2659999999999627, , , , , , , , , , , , frizNearRight.jpg, The force is home., right, , , , , frizNearRight.jpg, The force is home., right, 2, 14, 46, 11, 55421948, Wed Nov 15 2017 14:47:21 GMT-0500 (Eastern Standard Time), Ultimate_Frisbee, 60
, , , , , , , , , , , , right, 1, 1.532000000000039, , , , , , , , , , , , frizNearRight.jpg, The force is forehand., right, , , , , frizNearRight.jpg, The force is forehand., right, 2, 15, 47, 3, 55421948, Wed Nov 15 2017 14:47:21 GMT-0500 (Eastern Standard Time), Ultimate_Frisbee, 60
, , , , , , , , , , , , left, 1, 0.7180000000000177, , , , , , , , , , , , frizNearRight.jpg, The force is away., left, , , , , frizNearRight.jpg, The force is away., left, 3, 0, 48, 15, 55421948, Wed Nov 15 2017 14:47:21 GMT-0500 (Eastern Standard Time), Ultimate_Frisbee, 60
, , , , , , , , , , , , right, 1, 0.7660000000000196, , , , , , , , , , , , frizNearRight.jpg, The force is home., right, , , , , frizNearRight.jpg, The force is home., right, 3, 1, 49, 11, 55421948, Wed Nov 15 2017 14:47:21 GMT-0500 (Eastern Standard Time), Ultimate_Frisbee, 60
, , , , , , , , , , , , right, 1, 0.7180000000000177, , , , , , , , , , , , frizFarRight.jpg, The force is home., right, , , , , frizFarRight.jpg, The force is home., right, 3, 2, 50, 9, 55421948, Wed Nov 15 2017 14:47:21 GMT-0500 (Eastern Standard Time), Ultimate_Frisbee, 60
, , , , , , , , , , , , right, 1, 0.6990000000000123, , , , , , , , , , , , frizNearLeft.jpg, The force is away., right, , , , , frizNearLeft.jpg, The force is away., right, 3, 3, 51, 14, 55421948, Wed Nov 15 2017 14:47:21 GMT-0500 (Eastern Standard Time), Ultimate_Frisbee, 60
, , , , , , , , , , , , right, 1, 1.08299999999997, , , , , , , , , , , , frizFarRight.jpg, The force is backhand., right, , , , , frizFarRight.jpg, The force is backhand., right, 3, 4, 52, 5, 55421948, Wed Nov 15 2017 14:47:21 GMT-0500 (Eastern Standard Time), Ultimate_Frisbee, 60
, , , , , , , , , , , , right, 1, 1.6329999999999814, , , , , , , , , , , , frizFarLeft.jpg, The force is backhand., right, , , , , frizFarLeft.jpg, The force is backhand., right, 3, 5, 53, 4, 55421948, Wed Nov 15 2017 14:47:21 GMT-0500 (Eastern Standard Time), Ultimate_Frisbee, 60
, , , , , , , , , , , , left, 1, 0.6510000000000105, , , , , , , , , , , , frizFarRight.jpg, The force is away., left, , , , , frizFarRight.jpg, The force is away., left, 3, 6, 54, 13, 55421948, Wed Nov 15 2017 14:47:21 GMT-0500 (Eastern Standard Time), Ultimate_Frisbee, 60
, , , , , , , , , , , , left, 1, 1.0339999999999918, , , , , , , , , , , , frizFarRight.jpg, The force is forehand., left, , , , , frizFarRight.jpg, The force is forehand., left, 3, 7, 55, 1, 55421948, Wed Nov 15 2017 14:47:21 GMT-0500 (Eastern Standard Time), Ultimate_Frisbee, 60
, , , , , , , , , , , , left, 1, 0.5999999999999659, , , , , , , , , , , , frizFarLeft.jpg, The force is forehand., left, , , , , frizFarLeft.jpg, The force is forehand., left, 3, 8, 56, 0, 55421948, Wed Nov 15 2017 14:47:21 GMT-0500 (Eastern Standard Time), Ultimate_Frisbee, 60
, , , , , , , , , , , , right, 1, 0.6829999999999927, , , , , , , , , , , , frizNearRight.jpg, The force is forehand., right, , , , , frizNearRight.jpg, The force is forehand., right, 3, 9, 57, 3, 55421948, Wed Nov 15 2017 14:47:21 GMT-0500 (Eastern Standard Time), Ultimate_Frisbee, 60
, , , , , , , , , , , , left, 1, 0.9340000000000259, , , , , , , , , , , , frizNearLeft.jpg, The force is home., left, , , , , frizNearLeft.jpg, The force is home., left, 3, 10, 58, 10, 55421948, Wed Nov 15 2017 14:47:21 GMT-0500 (Eastern Standard Time), Ultimate_Frisbee, 60
, , , , , , , , , , , , left, 1, 0.7160000000000082, , , , , , , , , , , , frizFarLeft.jpg, The force is home., left, , , , , frizFarLeft.jpg, The force is home., left, 3, 11, 59, 8, 55421948, Wed Nov 15 2017 14:47:21 GMT-0500 (Eastern Standard Time), Ultimate_Frisbee, 60
, , , , , , , , , , , , left, 1, 1.1820000000000164, , , , , , , , , , , , frizNearLeft.jpg, The force is backhand., left, , , , , frizNearLeft.jpg, The force is backhand., left, 3, 12, 60, 6, 55421948, Wed Nov 15 2017 14:47:21 GMT-0500 (Eastern Standard Time), Ultimate_Frisbee, 60
, , , , , , , , , , , , left, 1, 0.8149999999999977, , , , , , , , , , , , frizNearRight.jpg, The force is backhand., left, , , , , frizNearRight.jpg, The force is backhand., left, 3, 13, 61, 7, 55421948, Wed Nov 15 2017 14:47:21 GMT-0500 (Eastern Standard Time), Ultimate_Frisbee, 60
, , , , , , , , , , , , right, 1, 0.8830000000000382, , , , , , , , , , , , frizFarLeft.jpg, The force is away., right, , , , , frizFarLeft.jpg, The force is away., right, 3, 14, 62, 12, 55421948, Wed Nov 15 2017 14:47:21 GMT-0500 (Eastern Standard Time), Ultimate_Frisbee, 60
, , , , , , , , , , , , right, 1, 0.9329999999999927, , , , , , , , , , , , frizNearLeft.jpg, The force is forehand., right, , , , , frizNearLeft.jpg, The force is forehand., right, 3, 15, 63, 2, 55421948, Wed Nov 15 2017 14:47:21 GMT-0500 (Eastern Standard Time), Ultimate_Frisbee, 60
