Continue.keys, Continue.rt, instructions_response.keys, instructions_response.rt, repeat_response.keys, repeat_response.rt, key_resp_5.keys, key_resp_5.rt, key_resp_2.keys, key_resp_2.rt, key_resp_4.keys, key_resp_4.rt, Trials_response.keys, Trials_response.corr, Trials_response.rt, Block_Continue.keys, Block_Continue.rt, Image, instructions_1_loop.thisRepN, instructions_1_loop.thisTrialN, instructions_1_loop.thisN, instructions_1_loop.thisIndex, instructions_2_repeat.thisRepN, instructions_2_repeat.thisTrialN, instructions_2_repeat.thisN, instructions_2_repeat.thisIndex, stim, prompt, answer, trials_2.thisRepN, trials_2.thisTrialN, trials_2.thisN, trials_2.thisIndex, stim, prompt, answer, trials.thisRepN, trials.thisTrialN, trials.thisN, trials.thisIndex, participant, date, expName, frameRate
space, 1.2640000000000002, space, 3.8419999999999987, , , , , , , , , , , , , , Slide1.JPG, 0, 0, 0, 0, , , , , , , , , , , , , , , , , , , 61216562, Mon Aug 21 2017 09:38:57 GMT-0400 (EDT), Ultimate_Frisbee, 60
, , space, 46.922000000000004, , , , , , , , , , , , , , Slide2.JPG, 0, 1, 1, 1, , , , , , , , , , , , , , , , , , , 61216562, Mon Aug 21 2017 09:38:57 GMT-0400 (EDT), Ultimate_Frisbee, 60
, , space, 7.100000000000001, , , , , , , , , , , , , , Slide3.JPG, 0, 2, 2, 2, , , , , , , , , , , , , , , , , , , 61216562, Mon Aug 21 2017 09:38:57 GMT-0400 (EDT), Ultimate_Frisbee, 60
, , space, 5.321000000000012, , , , , , , , , , , , , , Slide4.JPG, 0, 3, 3, 3, , , , , , , , , , , , , , , , , , , 61216562, Mon Aug 21 2017 09:38:57 GMT-0400 (EDT), Ultimate_Frisbee, 60
, , space, 141.63, , , , , , , , , , , , , , Slide5.JPG, 0, 4, 4, 4, , , , , , , , , , , , , , , , , , , 61216562, Mon Aug 21 2017 09:38:57 GMT-0400 (EDT), Ultimate_Frisbee, 60
, , space, 24.69199999999998, , , , , , , , , , , , , , Slide6.JPG, 0, 5, 5, 5, , , , , , , , , , , , , , , , , , , 61216562, Mon Aug 21 2017 09:38:57 GMT-0400 (EDT), Ultimate_Frisbee, 60
, , space, 5.687000000000012, , , , , , , , , , , , , , Slide7.JPG, 0, 6, 6, 6, , , , , , , , , , , , , , , , , , , 61216562, Mon Aug 21 2017 09:38:57 GMT-0400 (EDT), Ultimate_Frisbee, 60
, , space, 11.52200000000002, , , , , , , , , , , , , , Slide8.JPG, 0, 7, 7, 7, , , , , , , , , , , , , , , , , , , 61216562, Mon Aug 21 2017 09:38:57 GMT-0400 (EDT), Ultimate_Frisbee, 60
, , space, 10.326000000000022, , , , , , , , , , , , , , Slide9.JPG, 0, 8, 8, 8, , , , , , , , , , , , , , , , , , , 61216562, Mon Aug 21 2017 09:38:57 GMT-0400 (EDT), Ultimate_Frisbee, 60
, , space, 5.937000000000012, , , , , , , , , , , , , , Slide10.JPG, 0, 9, 9, 9, , , , , , , , , , , , , , , , , , , 61216562, Mon Aug 21 2017 09:38:57 GMT-0400 (EDT), Ultimate_Frisbee, 60
, , space, 5.586999999999989, , , , , , , , , , , , , , Slide11.JPG, 0, 10, 10, 10, , , , , , , , , , , , , , , , , , , 61216562, Mon Aug 21 2017 09:38:57 GMT-0400 (EDT), Ultimate_Frisbee, 60
, , space, 3.5749999999999886, , , , , , , , , , , , , , Slide12.JPG, 0, 11, 11, 11, , , , , , , , , , , , , , , , , , , 61216562, Mon Aug 21 2017 09:38:57 GMT-0400 (EDT), Ultimate_Frisbee, 60
, , space, 4.024000000000001, , , , , , , , , , , , , , Slide13.JPG, 0, 12, 12, 12, , , , , , , , , , , , , , , , , , , 61216562, Mon Aug 21 2017 09:38:57 GMT-0400 (EDT), Ultimate_Frisbee, 60
, , space, 3.709000000000003, , , , , , , , , , , , , , Slide14.JPG, 0, 13, 13, 13, , , , , , , , , , , , , , , , , , , 61216562, Mon Aug 21 2017 09:38:57 GMT-0400 (EDT), Ultimate_Frisbee, 60
, , , , 0, 2.7269999999999754, space, 4.954999999999984, left, 9.543999999999983, , , , , , , , , , , , , , , , , frizFarLeft.jpg, The force is forehand., left, 0, 0, 0, 0, frizFarLeft.jpg, The force is forehand., left, , , , , 61216562, Mon Aug 21 2017 09:38:57 GMT-0400 (EDT), Ultimate_Frisbee, 60
, , , , , , , , right, 3.6399999999999864, , , , , , , , , , , , , , , , , frizNearLeft.jpg, The force is away., right, 0, 1, 1, 1, frizNearLeft.jpg, The force is away., right, , , , , 61216562, Mon Aug 21 2017 09:38:57 GMT-0400 (EDT), Ultimate_Frisbee, 60
, , , , , , , , right, 2.959000000000003, , , , , , , , , , , , , , , , , frizFarRight.jpg, The force is backhand., right, 0, 2, 2, 2, frizFarRight.jpg, The force is backhand., right, , , , , 61216562, Mon Aug 21 2017 09:38:57 GMT-0400 (EDT), Ultimate_Frisbee, 60
, , , , , , , , right, 2.5100000000000477, , , , , , , , , , , , , , , , , frizNearRight.jpg, The force is home., right, 0, 3, 3, 3, frizNearRight.jpg, The force is home., right, , , , , 61216562, Mon Aug 21 2017 09:38:57 GMT-0400 (EDT), Ultimate_Frisbee, 60
, , , , , , , , left, 1.6789999999999736, , , , , , , , , , , , , , , , , frizNearLeft.jpg, The force is backhand., left, 0, 4, 4, 4, frizNearLeft.jpg, The force is backhand., left, , , , , 61216562, Mon Aug 21 2017 09:38:57 GMT-0400 (EDT), Ultimate_Frisbee, 60
, , , , , , , , right, 1.3460000000000036, , , , , , , , , , , , , , , , , frizNearRight.jpg, The force is home., right, 0, 5, 5, 5, frizNearRight.jpg, The force is home., right, , , , , 61216562, Mon Aug 21 2017 09:38:57 GMT-0400 (EDT), Ultimate_Frisbee, 60
, , , , , , , , right, 1.9110000000000014, , , , , , , , , , , , , , , , , frizNearLeft.jpg, The force is away., right, 0, 6, 6, 6, frizNearLeft.jpg, The force is away., right, , , , , 61216562, Mon Aug 21 2017 09:38:57 GMT-0400 (EDT), Ultimate_Frisbee, 60
, , , , , , , , right, 2.3600000000000136, , , , , , , , , , , , , , , , , frizFarLeft.jpg, The force is forehand., left, 0, 7, 7, 7, frizFarLeft.jpg, The force is forehand., left, , , , , 61216562, Mon Aug 21 2017 09:38:57 GMT-0400 (EDT), Ultimate_Frisbee, 60
, , , , , , , , , , space, 7.298999999999978, right, 1, 2.0790000000000077, , , , , , , , , , , , frizNearLeft.jpg, The force is away., right, , , , , frizNearLeft.jpg, The force is away., right, 0, 0, 0, 14, 61216562, Mon Aug 21 2017 09:38:57 GMT-0400 (EDT), Ultimate_Frisbee, 60
, , , , , , , , , , , , right, 1, 2.6440000000000055, , , , , , , , , , , , frizFarLeft.jpg, The force is backhand., right, , , , , frizFarLeft.jpg, The force is backhand., right, 0, 1, 1, 4, 61216562, Mon Aug 21 2017 09:38:57 GMT-0400 (EDT), Ultimate_Frisbee, 60
, , , , , , , , , , , , left, 1, 1.7290000000000418, , , , , , , , , , , , frizFarLeft.jpg, The force is forehand., left, , , , , frizFarLeft.jpg, The force is forehand., left, 0, 2, 2, 0, 61216562, Mon Aug 21 2017 09:38:57 GMT-0400 (EDT), Ultimate_Frisbee, 60
, , , , , , , , , , , , right, 1, 2.044999999999959, , , , , , , , , , , , frizFarLeft.jpg, The force is away., right, , , , , frizFarLeft.jpg, The force is away., right, 0, 3, 3, 12, 61216562, Mon Aug 21 2017 09:38:57 GMT-0400 (EDT), Ultimate_Frisbee, 60
, , , , , , , , , , , , left, 1, 2.2110000000000127, , , , , , , , , , , , frizNearLeft.jpg, The force is home., left, , , , , frizNearLeft.jpg, The force is home., left, 0, 4, 4, 10, 61216562, Mon Aug 21 2017 09:38:57 GMT-0400 (EDT), Ultimate_Frisbee, 60
, , , , , , , , , , , , right, 1, 1.961999999999989, , , , , , , , , , , , frizFarRight.jpg, The force is home., right, , , , , frizFarRight.jpg, The force is home., right, 0, 5, 5, 9, 61216562, Mon Aug 21 2017 09:38:57 GMT-0400 (EDT), Ultimate_Frisbee, 60
, , , , , , , , , , , , left, 1, 1.545000000000016, , , , , , , , , , , , frizNearRight.jpg, The force is away., left, , , , , frizNearRight.jpg, The force is away., left, 0, 6, 6, 15, 61216562, Mon Aug 21 2017 09:38:57 GMT-0400 (EDT), Ultimate_Frisbee, 60
, , , , , , , , , , , , right, 1, 1.961999999999989, , , , , , , , , , , , frizNearRight.jpg, The force is forehand., right, , , , , frizNearRight.jpg, The force is forehand., right, 0, 7, 7, 3, 61216562, Mon Aug 21 2017 09:38:57 GMT-0400 (EDT), Ultimate_Frisbee, 60
, , , , , , , , , , , , left, 1, 1.7460000000000377, , , , , , , , , , , , frizFarLeft.jpg, The force is home., left, , , , , frizFarLeft.jpg, The force is home., left, 0, 8, 8, 8, 61216562, Mon Aug 21 2017 09:38:57 GMT-0400 (EDT), Ultimate_Frisbee, 60
, , , , , , , , , , , , left, 1, 4.406000000000006, , , , , , , , , , , , frizFarRight.jpg, The force is forehand., left, , , , , frizFarRight.jpg, The force is forehand., left, 0, 9, 9, 1, 61216562, Mon Aug 21 2017 09:38:57 GMT-0400 (EDT), Ultimate_Frisbee, 60
, , , , , , , , , , , , left, 1, 3.026999999999987, , , , , , , , , , , , frizFarRight.jpg, The force is away., left, , , , , frizFarRight.jpg, The force is away., left, 0, 10, 10, 13, 61216562, Mon Aug 21 2017 09:38:57 GMT-0400 (EDT), Ultimate_Frisbee, 60
, , , , , , , , , , , , right, 1, 1.795000000000016, , , , , , , , , , , , frizFarRight.jpg, The force is backhand., right, , , , , frizFarRight.jpg, The force is backhand., right, 0, 11, 11, 5, 61216562, Mon Aug 21 2017 09:38:57 GMT-0400 (EDT), Ultimate_Frisbee, 60
, , , , , , , , , , , , left, 1, 1.961999999999989, , , , , , , , , , , , frizNearRight.jpg, The force is backhand., left, , , , , frizNearRight.jpg, The force is backhand., left, 0, 12, 12, 7, 61216562, Mon Aug 21 2017 09:38:57 GMT-0400 (EDT), Ultimate_Frisbee, 60
, , , , , , , , , , , , right, 1, 1.6789999999999736, , , , , , , , , , , , frizNearRight.jpg, The force is home., right, , , , , frizNearRight.jpg, The force is home., right, 0, 13, 13, 11, 61216562, Mon Aug 21 2017 09:38:57 GMT-0400 (EDT), Ultimate_Frisbee, 60
, , , , , , , , , , , , right, 1, 3.1920000000000073, , , , , , , , , , , , frizNearLeft.jpg, The force is forehand., right, , , , , frizNearLeft.jpg, The force is forehand., right, 0, 14, 14, 2, 61216562, Mon Aug 21 2017 09:38:57 GMT-0400 (EDT), Ultimate_Frisbee, 60
, , , , , , , , , , , , left, 1, 1.4470000000000027, , , , , , , , , , , , frizNearLeft.jpg, The force is backhand., left, , , , , frizNearLeft.jpg, The force is backhand., left, 0, 15, 15, 6, 61216562, Mon Aug 21 2017 09:38:57 GMT-0400 (EDT), Ultimate_Frisbee, 60
, , , , , , , , , , , , right, 1, 4.656000000000006, , , , , , , , , , , , frizNearLeft.jpg, The force is forehand., right, , , , , frizNearLeft.jpg, The force is forehand., right, 1, 0, 16, 2, 61216562, Mon Aug 21 2017 09:38:57 GMT-0400 (EDT), Ultimate_Frisbee, 60
, , , , , , , , , , , , left, 1, 1.6800000000000068, , , , , , , , , , , , frizNearRight.jpg, The force is backhand., left, , , , , frizNearRight.jpg, The force is backhand., left, 1, 1, 17, 7, 61216562, Mon Aug 21 2017 09:38:57 GMT-0400 (EDT), Ultimate_Frisbee, 60
, , , , , , , , , , , , right, 1, 1.497000000000014, , , , , , , , , , , , frizNearRight.jpg, The force is home., right, , , , , frizNearRight.jpg, The force is home., right, 1, 2, 18, 11, 61216562, Mon Aug 21 2017 09:38:57 GMT-0400 (EDT), Ultimate_Frisbee, 60
, , , , , , , , , , , , right, 1, 1.9120000000000346, , , , , , , , , , , , frizFarRight.jpg, The force is backhand., right, , , , , frizFarRight.jpg, The force is backhand., right, 1, 3, 19, 5, 61216562, Mon Aug 21 2017 09:38:57 GMT-0400 (EDT), Ultimate_Frisbee, 60
, , , , , , , , , , , , left, 1, 2.842999999999961, , , , , , , , , , , , frizFarLeft.jpg, The force is forehand., left, , , , , frizFarLeft.jpg, The force is forehand., left, 1, 4, 20, 0, 61216562, Mon Aug 21 2017 09:38:57 GMT-0400 (EDT), Ultimate_Frisbee, 60
, , , , , , , , , , , , right, 1, 1.4630000000000223, , , , , , , , , , , , frizFarLeft.jpg, The force is backhand., right, , , , , frizFarLeft.jpg, The force is backhand., right, 1, 5, 21, 4, 61216562, Mon Aug 21 2017 09:38:57 GMT-0400 (EDT), Ultimate_Frisbee, 60
, , , , , , , , , , , , left, 1, 2.6929999999999836, , , , , , , , , , , , frizNearLeft.jpg, The force is home., left, , , , , frizNearLeft.jpg, The force is home., left, 1, 6, 22, 10, 61216562, Mon Aug 21 2017 09:38:57 GMT-0400 (EDT), Ultimate_Frisbee, 60
, , , , , , , , , , , , right, 1, 2.5780000000000314, , , , , , , , , , , , frizNearLeft.jpg, The force is away., right, , , , , frizNearLeft.jpg, The force is away., right, 1, 7, 23, 14, 61216562, Mon Aug 21 2017 09:38:57 GMT-0400 (EDT), Ultimate_Frisbee, 60
, , , , , , , , , , , , right, 1, 3.076000000000022, , , , , , , , , , , , frizNearRight.jpg, The force is forehand., right, , , , , frizNearRight.jpg, The force is forehand., right, 1, 8, 24, 3, 61216562, Mon Aug 21 2017 09:38:57 GMT-0400 (EDT), Ultimate_Frisbee, 60
, , , , , , , , , , , , right, 1, 2.076999999999998, , , , , , , , , , , , frizFarRight.jpg, The force is home., right, , , , , frizFarRight.jpg, The force is home., right, 1, 9, 25, 9, 61216562, Mon Aug 21 2017 09:38:57 GMT-0400 (EDT), Ultimate_Frisbee, 60
, , , , , , , , , , , , left, 1, 2.4279999999999973, , , , , , , , , , , , frizNearLeft.jpg, The force is backhand., left, , , , , frizNearLeft.jpg, The force is backhand., left, 1, 10, 26, 6, 61216562, Mon Aug 21 2017 09:38:57 GMT-0400 (EDT), Ultimate_Frisbee, 60
, , , , , , , , , , , , left, 1, 2.8759999999999764, , , , , , , , , , , , frizFarRight.jpg, The force is away., left, , , , , frizFarRight.jpg, The force is away., left, 1, 11, 27, 13, 61216562, Mon Aug 21 2017 09:38:57 GMT-0400 (EDT), Ultimate_Frisbee, 60
, , , , , , , , , , , , left, 1, 2.5930000000000177, , , , , , , , , , , , frizFarLeft.jpg, The force is home., left, , , , , frizFarLeft.jpg, The force is home., left, 1, 12, 28, 8, 61216562, Mon Aug 21 2017 09:38:57 GMT-0400 (EDT), Ultimate_Frisbee, 60
, , , , , , , , , , , , right, 1, 2.2779999999999063, , , , , , , , , , , , frizFarLeft.jpg, The force is away., right, , , , , frizFarLeft.jpg, The force is away., right, 1, 13, 29, 12, 61216562, Mon Aug 21 2017 09:38:57 GMT-0400 (EDT), Ultimate_Frisbee, 60
, , , , , , , , , , , , left, 1, 4.690000000000055, , , , , , , , , , , , frizFarRight.jpg, The force is forehand., left, , , , , frizFarRight.jpg, The force is forehand., left, 1, 14, 30, 1, 61216562, Mon Aug 21 2017 09:38:57 GMT-0400 (EDT), Ultimate_Frisbee, 60
, , , , , , , , , , , , left, 1, 1.8449999999999136, , , , , , , , , , , , frizNearRight.jpg, The force is away., left, , , , , frizNearRight.jpg, The force is away., left, 1, 15, 31, 15, 61216562, Mon Aug 21 2017 09:38:57 GMT-0400 (EDT), Ultimate_Frisbee, 60
, , , , , , , , , , , , left, 1, 2.576999999999998, , , , , , , , , , , , frizFarRight.jpg, The force is away., left, , , , , frizFarRight.jpg, The force is away., left, 2, 0, 32, 13, 61216562, Mon Aug 21 2017 09:38:57 GMT-0400 (EDT), Ultimate_Frisbee, 60
, , , , , , , , , , , , right, 1, 3.524000000000001, , , , , , , , , , , , frizNearLeft.jpg, The force is forehand., right, , , , , frizNearLeft.jpg, The force is forehand., right, 2, 1, 33, 2, 61216562, Mon Aug 21 2017 09:38:57 GMT-0400 (EDT), Ultimate_Frisbee, 60
, , , , , , , , , , , , right, 1, 4.605000000000018, , , , , , , , , , , , frizFarLeft.jpg, The force is backhand., right, , , , , frizFarLeft.jpg, The force is backhand., right, 2, 2, 34, 4, 61216562, Mon Aug 21 2017 09:38:57 GMT-0400 (EDT), Ultimate_Frisbee, 60
, , , , , , , , , , , , left, 1, 3.3420000000000982, , , , , , , , , , , , frizNearLeft.jpg, The force is backhand., left, , , , , frizNearLeft.jpg, The force is backhand., left, 2, 3, 35, 6, 61216562, Mon Aug 21 2017 09:38:57 GMT-0400 (EDT), Ultimate_Frisbee, 60
, , , , , , , , , , , , left, 1, 4.205999999999904, , , , , , , , , , , , frizNearRight.jpg, The force is away., left, , , , , frizNearRight.jpg, The force is away., left, 2, 4, 36, 15, 61216562, Mon Aug 21 2017 09:38:57 GMT-0400 (EDT), Ultimate_Frisbee, 60
, , , , , , , , , , , , right, 1, 2.244000000000028, , , , , , , , , , , , frizNearRight.jpg, The force is home., right, , , , , frizNearRight.jpg, The force is home., right, 2, 5, 37, 11, 61216562, Mon Aug 21 2017 09:38:57 GMT-0400 (EDT), Ultimate_Frisbee, 60
, , , , , , , , , , , , left, 1, 2.062000000000012, , , , , , , , , , , , frizNearLeft.jpg, The force is home., left, , , , , frizNearLeft.jpg, The force is home., left, 2, 6, 38, 10, 61216562, Mon Aug 21 2017 09:38:57 GMT-0400 (EDT), Ultimate_Frisbee, 60
, , , , , , , , , , , , left, 1, 1.5289999999999964, , , , , , , , , , , , frizFarLeft.jpg, The force is home., left, , , , , frizFarLeft.jpg, The force is home., left, 2, 7, 39, 8, 61216562, Mon Aug 21 2017 09:38:57 GMT-0400 (EDT), Ultimate_Frisbee, 60
, , , , , , , , , , , , right, 1, 1.94500000000005, , , , , , , , , , , , frizFarRight.jpg, The force is home., right, , , , , frizFarRight.jpg, The force is home., right, 2, 8, 40, 9, 61216562, Mon Aug 21 2017 09:38:57 GMT-0400 (EDT), Ultimate_Frisbee, 60
, , , , , , , , , , , , right, 1, 2.742999999999938, , , , , , , , , , , , frizNearRight.jpg, The force is forehand., right, , , , , frizNearRight.jpg, The force is forehand., right, 2, 9, 41, 3, 61216562, Mon Aug 21 2017 09:38:57 GMT-0400 (EDT), Ultimate_Frisbee, 60
, , , , , , , , , , , , right, 1, 2.3940000000000055, , , , , , , , , , , , frizFarRight.jpg, The force is backhand., right, , , , , frizFarRight.jpg, The force is backhand., right, 2, 10, 42, 5, 61216562, Mon Aug 21 2017 09:38:57 GMT-0400 (EDT), Ultimate_Frisbee, 60
, , , , , , , , , , , , left, 1, 2.27800000000002, , , , , , , , , , , , frizFarLeft.jpg, The force is forehand., left, , , , , frizFarLeft.jpg, The force is forehand., left, 2, 11, 43, 0, 61216562, Mon Aug 21 2017 09:38:57 GMT-0400 (EDT), Ultimate_Frisbee, 60
, , , , , , , , , , , , left, 1, 2.4610000000000127, , , , , , , , , , , , frizFarRight.jpg, The force is forehand., left, , , , , frizFarRight.jpg, The force is forehand., left, 2, 12, 44, 1, 61216562, Mon Aug 21 2017 09:38:57 GMT-0400 (EDT), Ultimate_Frisbee, 60
, , , , , , , , , , , , right, 1, 1.8619999999999663, , , , , , , , , , , , frizFarLeft.jpg, The force is away., right, , , , , frizFarLeft.jpg, The force is away., right, 2, 13, 45, 12, 61216562, Mon Aug 21 2017 09:38:57 GMT-0400 (EDT), Ultimate_Frisbee, 60
, , , , , , , , , , , , left, 1, 2.0109999999999673, , , , , , , , , , , , frizNearRight.jpg, The force is backhand., left, , , , , frizNearRight.jpg, The force is backhand., left, 2, 14, 46, 7, 61216562, Mon Aug 21 2017 09:38:57 GMT-0400 (EDT), Ultimate_Frisbee, 60
, , , , , , , , , , , , right, 1, 1.9120000000000346, , , , , , , , , , , , frizNearLeft.jpg, The force is away., right, , , , , frizNearLeft.jpg, The force is away., right, 2, 15, 47, 14, 61216562, Mon Aug 21 2017 09:38:57 GMT-0400 (EDT), Ultimate_Frisbee, 60
, , , , , , , , , , , , right, 1, 5.769999999999982, , , , , , , , , , , , frizFarLeft.jpg, The force is away., right, , , , , frizFarLeft.jpg, The force is away., right, 3, 0, 48, 12, 61216562, Mon Aug 21 2017 09:38:57 GMT-0400 (EDT), Ultimate_Frisbee, 60
, , , , , , , , , , , , right, 1, 1.8619999999999663, , , , , , , , , , , , frizFarRight.jpg, The force is home., right, , , , , frizFarRight.jpg, The force is home., right, 3, 1, 49, 9, 61216562, Mon Aug 21 2017 09:38:57 GMT-0400 (EDT), Ultimate_Frisbee, 60
, , , , , , , , , , , , right, 1, 1.4630000000000791, , , , , , , , , , , , frizNearRight.jpg, The force is home., right, , , , , frizNearRight.jpg, The force is home., right, 3, 2, 50, 11, 61216562, Mon Aug 21 2017 09:38:57 GMT-0400 (EDT), Ultimate_Frisbee, 60
, , , , , , , , , , , , left, 1, 1.5620000000000118, , , , , , , , , , , , frizFarLeft.jpg, The force is home., left, , , , , frizFarLeft.jpg, The force is home., left, 3, 3, 51, 8, 61216562, Mon Aug 21 2017 09:38:57 GMT-0400 (EDT), Ultimate_Frisbee, 60
, , , , , , , , , , , , right, 1, 3.79099999999994, , , , , , , , , , , , frizFarRight.jpg, The force is backhand., right, , , , , frizFarRight.jpg, The force is backhand., right, 3, 4, 52, 5, 61216562, Mon Aug 21 2017 09:38:57 GMT-0400 (EDT), Ultimate_Frisbee, 60
, , , , , , , , , , , , right, 1, 3.060000000000059, , , , , , , , , , , , frizNearLeft.jpg, The force is away., right, , , , , frizNearLeft.jpg, The force is away., right, 3, 5, 53, 14, 61216562, Mon Aug 21 2017 09:38:57 GMT-0400 (EDT), Ultimate_Frisbee, 60
, , , , , , , , , , , , left, 1, 2.310999999999922, , , , , , , , , , , , frizNearRight.jpg, The force is backhand., left, , , , , frizNearRight.jpg, The force is backhand., left, 3, 6, 54, 7, 61216562, Mon Aug 21 2017 09:38:57 GMT-0400 (EDT), Ultimate_Frisbee, 60
, , , , , , , , , , , , left, 1, 2.1280000000000427, , , , , , , , , , , , frizNearLeft.jpg, The force is home., left, , , , , frizNearLeft.jpg, The force is home., left, 3, 7, 55, 10, 61216562, Mon Aug 21 2017 09:38:57 GMT-0400 (EDT), Ultimate_Frisbee, 60
, , , , , , , , , , , , right, 1, 1.5799999999999272, , , , , , , , , , , , frizNearRight.jpg, The force is forehand., right, , , , , frizNearRight.jpg, The force is forehand., right, 3, 8, 56, 3, 61216562, Mon Aug 21 2017 09:38:57 GMT-0400 (EDT), Ultimate_Frisbee, 60
, , , , , , , , , , , , right, 1, 2.509999999999991, , , , , , , , , , , , frizFarLeft.jpg, The force is backhand., right, , , , , frizFarLeft.jpg, The force is backhand., right, 3, 9, 57, 4, 61216562, Mon Aug 21 2017 09:38:57 GMT-0400 (EDT), Ultimate_Frisbee, 60
, , , , , , , , , , , , left, 1, 4.63900000000001, , , , , , , , , , , , frizNearRight.jpg, The force is away., left, , , , , frizNearRight.jpg, The force is away., left, 3, 10, 58, 15, 61216562, Mon Aug 21 2017 09:38:57 GMT-0400 (EDT), Ultimate_Frisbee, 60
, , , , , , , , , , , , right, 0, 2.8590000000000373, , , , , , , , , , , , frizFarLeft.jpg, The force is forehand., left, , , , , frizFarLeft.jpg, The force is forehand., left, 3, 11, 59, 0, 61216562, Mon Aug 21 2017 09:38:57 GMT-0400 (EDT), Ultimate_Frisbee, 60
, , , , , , , , , , , , left, 1, 2.7770000000000437, , , , , , , , , , , , frizFarRight.jpg, The force is away., left, , , , , frizFarRight.jpg, The force is away., left, 3, 12, 60, 13, 61216562, Mon Aug 21 2017 09:38:57 GMT-0400 (EDT), Ultimate_Frisbee, 60
, , , , , , , , , , , , left, 1, 2.95900000000006, , , , , , , , , , , , frizFarRight.jpg, The force is forehand., left, , , , , frizFarRight.jpg, The force is forehand., left, 3, 13, 61, 1, 61216562, Mon Aug 21 2017 09:38:57 GMT-0400 (EDT), Ultimate_Frisbee, 60
, , , , , , , , , , , , left, 1, 2.227999999999952, , , , , , , , , , , , frizNearLeft.jpg, The force is backhand., left, , , , , frizNearLeft.jpg, The force is backhand., left, 3, 14, 62, 6, 61216562, Mon Aug 21 2017 09:38:57 GMT-0400 (EDT), Ultimate_Frisbee, 60
, , , , , , , , , , , , right, 1, 2.5270000000000437, , , , , , , , , , , , frizNearLeft.jpg, The force is forehand., right, , , , , frizNearLeft.jpg, The force is forehand., right, 3, 15, 63, 2, 61216562, Mon Aug 21 2017 09:38:57 GMT-0400 (EDT), Ultimate_Frisbee, 60
