Continue.keys, Continue.rt, instructions_response.keys, instructions_response.rt, repeat_response.keys, repeat_response.rt, key_resp_3.keys, key_resp_3.rt, key_resp_5.keys, key_resp_5.rt, key_resp_2.keys, key_resp_2.rt, key_resp_4.keys, key_resp_4.rt, Trials_response.keys, Trials_response.corr, Trials_response.rt, Block_Continue.keys, Block_Continue.rt, Image, instructions_1_loop.thisRepN, instructions_1_loop.thisTrialN, instructions_1_loop.thisN, instructions_1_loop.thisIndex, instructions_2_repeat.thisRepN, instructions_2_repeat.thisTrialN, instructions_2_repeat.thisN, instructions_2_repeat.thisIndex, stim, prompt, answer, trials_2.thisRepN, trials_2.thisTrialN, trials_2.thisN, trials_2.thisIndex, stim, prompt, answer, trials.thisRepN, trials.thisTrialN, trials.thisN, trials.thisIndex, participant, date, expName, frameRate
space, 0.8350000000000009, space, 5.595000000000001, , , , , , , , , , , , , , , , Slide1.JPG, 0, 0, 0, 0, , , , , , , , , , , , , , , , , , , 64024983, Wed Oct 04 2017 12:02:28 GMT-0400 (Eastern Daylight Time), Ultimate_Frisbee, 60
, , space, 13.512, , , , , , , , , , , , , , , , Slide2.JPG, 0, 1, 1, 1, , , , , , , , , , , , , , , , , , , 64024983, Wed Oct 04 2017 12:02:28 GMT-0400 (Eastern Daylight Time), Ultimate_Frisbee, 60
, , space, 5.727999999999994, , , , , , , , , , , , , , , , Slide3.JPG, 0, 2, 2, 2, , , , , , , , , , , , , , , , , , , 64024983, Wed Oct 04 2017 12:02:28 GMT-0400 (Eastern Daylight Time), Ultimate_Frisbee, 60
, , space, 6.014000000000003, , , , , , , , , , , , , , , , Slide4.JPG, 0, 3, 3, 3, , , , , , , , , , , , , , , , , , , 64024983, Wed Oct 04 2017 12:02:28 GMT-0400 (Eastern Daylight Time), Ultimate_Frisbee, 60
, , space, 9.604, , , , , , , , , , , , , , , , Slide5.JPG, 0, 4, 4, 4, , , , , , , , , , , , , , , , , , , 64024983, Wed Oct 04 2017 12:02:28 GMT-0400 (Eastern Daylight Time), Ultimate_Frisbee, 60
, , space, 14.234000000000002, , , , , , , , , , , , , , , , Slide6.JPG, 0, 5, 5, 5, , , , , , , , , , , , , , , , , , , 64024983, Wed Oct 04 2017 12:02:28 GMT-0400 (Eastern Daylight Time), Ultimate_Frisbee, 60
, , space, 14.866, , , , , , , , , , , , , , , , Slide7.JPG, 0, 6, 6, 6, , , , , , , , , , , , , , , , , , , 64024983, Wed Oct 04 2017 12:02:28 GMT-0400 (Eastern Daylight Time), Ultimate_Frisbee, 60
, , space, 6.012999999999991, , , , , , , , , , , , , , , , Slide8.JPG, 0, 7, 7, 7, , , , , , , , , , , , , , , , , , , 64024983, Wed Oct 04 2017 12:02:28 GMT-0400 (Eastern Daylight Time), Ultimate_Frisbee, 60
, , space, 4.375999999999991, , , , , , , , , , , , , , , , Slide9.JPG, 0, 8, 8, 8, , , , , , , , , , , , , , , , , , , 64024983, Wed Oct 04 2017 12:02:28 GMT-0400 (Eastern Daylight Time), Ultimate_Frisbee, 60
, , space, 8.634, , , , , , , , , , , , , , , , Slide10.JPG, 0, 9, 9, 9, , , , , , , , , , , , , , , , , , , 64024983, Wed Oct 04 2017 12:02:28 GMT-0400 (Eastern Daylight Time), Ultimate_Frisbee, 60
, , space, 27.946000000000012, , , , , , , , , , , , , , , , Slide11.JPG, 0, 10, 10, 10, , , , , , , , , , , , , , , , , , , 64024983, Wed Oct 04 2017 12:02:28 GMT-0400 (Eastern Daylight Time), Ultimate_Frisbee, 60
, , space, 3.8910000000000196, , , , , , , , , , , , , , , , Slide12.JPG, 0, 11, 11, 11, , , , , , , , , , , , , , , , , , , 64024983, Wed Oct 04 2017 12:02:28 GMT-0400 (Eastern Daylight Time), Ultimate_Frisbee, 60
, , space, 2.757000000000005, , , , , , , , , , , , , , , , Slide13.JPG, 0, 12, 12, 12, , , , , , , , , , , , , , , , , , , 64024983, Wed Oct 04 2017 12:02:28 GMT-0400 (Eastern Daylight Time), Ultimate_Frisbee, 60
, , space, 2.4890000000000043, , , , , , , , , , , , , , , , Slide14.JPG, 0, 13, 13, 13, , , , , , , , , , , , , , , , , , , 64024983, Wed Oct 04 2017 12:02:28 GMT-0400 (Eastern Daylight Time), Ultimate_Frisbee, 60
, , , , 1, 147.256, space, 0.2510000000000332, space, 5.412000000000035, left, 1.5690000000000168, , , , , , , , , , , , , , , , , frizFarLeft.jpg, The force is forehand., left, 0, 0, 0, 0, frizFarLeft.jpg, The force is forehand., left, , , , , 64024983, Wed Oct 04 2017 12:02:28 GMT-0400 (Eastern Daylight Time), Ultimate_Frisbee, 60
, , , , , , , , , , right, 1.603999999999985, , , , , , , , , , , , , , , , , frizNearLeft.jpg, The force is away., right, 0, 1, 1, 1, frizNearLeft.jpg, The force is away., right, , , , , 64024983, Wed Oct 04 2017 12:02:28 GMT-0400 (Eastern Daylight Time), Ultimate_Frisbee, 60
, , , , , , , , , , right, 1.6870000000000118, , , , , , , , , , , , , , , , , frizFarRight.jpg, The force is backhand., right, 0, 2, 2, 2, frizFarRight.jpg, The force is backhand., right, , , , , 64024983, Wed Oct 04 2017 12:02:28 GMT-0400 (Eastern Daylight Time), Ultimate_Frisbee, 60
, , , , , , , , , , right, 1.535000000000025, , , , , , , , , , , , , , , , , frizNearRight.jpg, The force is home., right, 0, 3, 3, 3, frizNearRight.jpg, The force is home., right, , , , , 64024983, Wed Oct 04 2017 12:02:28 GMT-0400 (Eastern Daylight Time), Ultimate_Frisbee, 60
, , , , , , , , , , right, 1.3690000000000282, , , , , , , , , , , , , , , , , frizNearLeft.jpg, The force is backhand., left, 0, 4, 4, 4, frizNearLeft.jpg, The force is backhand., left, , , , , 64024983, Wed Oct 04 2017 12:02:28 GMT-0400 (Eastern Daylight Time), Ultimate_Frisbee, 60
, , , , , , , , , , right, 1.1519999999999868, , , , , , , , , , , , , , , , , frizNearRight.jpg, The force is home., right, 0, 5, 5, 5, frizNearRight.jpg, The force is home., right, , , , , 64024983, Wed Oct 04 2017 12:02:28 GMT-0400 (Eastern Daylight Time), Ultimate_Frisbee, 60
, , , , , , , , , , right, 1.4190000000000396, , , , , , , , , , , , , , , , , frizNearLeft.jpg, The force is away., right, 0, 6, 6, 6, frizNearLeft.jpg, The force is away., right, , , , , 64024983, Wed Oct 04 2017 12:02:28 GMT-0400 (Eastern Daylight Time), Ultimate_Frisbee, 60
, , , , , , , , , , left, 1.4540000000000077, , , , , , , , , , , , , , , , , frizFarLeft.jpg, The force is forehand., left, 0, 7, 7, 7, frizFarLeft.jpg, The force is forehand., left, , , , , 64024983, Wed Oct 04 2017 12:02:28 GMT-0400 (Eastern Daylight Time), Ultimate_Frisbee, 60
, , , , , , , , , , , , space, 6.529999999999973, right, 1, 1.2199999999999704, , , , , , , , , , , , frizNearLeft.jpg, The force is forehand., right, , , , , frizNearLeft.jpg, The force is forehand., right, 0, 0, 0, 2, 64024983, Wed Oct 04 2017 12:02:28 GMT-0400 (Eastern Daylight Time), Ultimate_Frisbee, 60
, , , , , , , , , , , , , , right, 1, 1.1859999999999786, , , , , , , , , , , , frizFarRight.jpg, The force is backhand., right, , , , , frizFarRight.jpg, The force is backhand., right, 0, 1, 1, 5, 64024983, Wed Oct 04 2017 12:02:28 GMT-0400 (Eastern Daylight Time), Ultimate_Frisbee, 60
, , , , , , , , , , , , , , right, 1, 0.9679999999999609, , , , , , , , , , , , frizNearRight.jpg, The force is forehand., right, , , , , frizNearRight.jpg, The force is forehand., right, 0, 2, 2, 3, 64024983, Wed Oct 04 2017 12:02:28 GMT-0400 (Eastern Daylight Time), Ultimate_Frisbee, 60
, , , , , , , , , , , , , , left, 0, 1.271000000000015, , , , , , , , , , , , frizFarLeft.jpg, The force is away., right, , , , , frizFarLeft.jpg, The force is away., right, 0, 3, 3, 12, 64024983, Wed Oct 04 2017 12:02:28 GMT-0400 (Eastern Daylight Time), Ultimate_Frisbee, 60
, , , , , , , , , , , , , , right, 1, 1.3530000000000086, , , , , , , , , , , , frizFarLeft.jpg, The force is backhand., right, , , , , frizFarLeft.jpg, The force is backhand., right, 0, 4, 4, 4, 64024983, Wed Oct 04 2017 12:02:28 GMT-0400 (Eastern Daylight Time), Ultimate_Frisbee, 60
, , , , , , , , , , , , , , right, 0, 1.3530000000000086, , , , , , , , , , , , frizFarRight.jpg, The force is away., left, , , , , frizFarRight.jpg, The force is away., left, 0, 5, 5, 13, 64024983, Wed Oct 04 2017 12:02:28 GMT-0400 (Eastern Daylight Time), Ultimate_Frisbee, 60
, , , , , , , , , , , , , , left, 1, 1.5699999999999932, , , , , , , , , , , , frizNearRight.jpg, The force is away., left, , , , , frizNearRight.jpg, The force is away., left, 0, 6, 6, 15, 64024983, Wed Oct 04 2017 12:02:28 GMT-0400 (Eastern Daylight Time), Ultimate_Frisbee, 60
, , , , , , , , , , , , , , left, 1, 0.9359999999999786, , , , , , , , , , , , frizFarLeft.jpg, The force is home., left, , , , , frizFarLeft.jpg, The force is home., left, 0, 7, 7, 8, 64024983, Wed Oct 04 2017 12:02:28 GMT-0400 (Eastern Daylight Time), Ultimate_Frisbee, 60
, , , , , , , , , , , , , , left, 1, 1.23599999999999, , , , , , , , , , , , frizNearLeft.jpg, The force is home., left, , , , , frizNearLeft.jpg, The force is home., left, 0, 8, 8, 10, 64024983, Wed Oct 04 2017 12:02:28 GMT-0400 (Eastern Daylight Time), Ultimate_Frisbee, 60
, , , , , , , , , , , , , , right, 1, 2.6889999999999645, , , , , , , , , , , , frizFarRight.jpg, The force is home., right, , , , , frizFarRight.jpg, The force is home., right, 0, 9, 9, 9, 64024983, Wed Oct 04 2017 12:02:28 GMT-0400 (Eastern Daylight Time), Ultimate_Frisbee, 60
, , , , , , , , , , , , , , left, 1, 1.8879999999999768, , , , , , , , , , , , frizNearRight.jpg, The force is backhand., left, , , , , frizNearRight.jpg, The force is backhand., left, 0, 10, 10, 7, 64024983, Wed Oct 04 2017 12:02:28 GMT-0400 (Eastern Daylight Time), Ultimate_Frisbee, 60
, , , , , , , , , , , , , , left, 1, 2.055000000000007, , , , , , , , , , , , frizFarLeft.jpg, The force is forehand., left, , , , , frizFarLeft.jpg, The force is forehand., left, 0, 11, 11, 0, 64024983, Wed Oct 04 2017 12:02:28 GMT-0400 (Eastern Daylight Time), Ultimate_Frisbee, 60
, , , , , , , , , , , , , , right, 0, 1.23599999999999, , , , , , , , , , , , frizNearLeft.jpg, The force is backhand., left, , , , , frizNearLeft.jpg, The force is backhand., left, 0, 12, 12, 6, 64024983, Wed Oct 04 2017 12:02:28 GMT-0400 (Eastern Daylight Time), Ultimate_Frisbee, 60
, , , , , , , , , , , , , , right, 1, 2.605000000000018, , , , , , , , , , , , frizNearLeft.jpg, The force is away., right, , , , , frizNearLeft.jpg, The force is away., right, 0, 13, 13, 14, 64024983, Wed Oct 04 2017 12:02:28 GMT-0400 (Eastern Daylight Time), Ultimate_Frisbee, 60
, , , , , , , , , , , , , , right, 1, 1.8040000000000305, , , , , , , , , , , , frizNearRight.jpg, The force is home., right, , , , , frizNearRight.jpg, The force is home., right, 0, 14, 14, 11, 64024983, Wed Oct 04 2017 12:02:28 GMT-0400 (Eastern Daylight Time), Ultimate_Frisbee, 60
, , , , , , , , , , , , , , left, 1, 1.754000000000019, , , , , , , , , , , , frizFarRight.jpg, The force is forehand., left, , , , , frizFarRight.jpg, The force is forehand., left, 0, 15, 15, 1, 64024983, Wed Oct 04 2017 12:02:28 GMT-0400 (Eastern Daylight Time), Ultimate_Frisbee, 60
, , , , , , , , , , , , , , right, 1, 1.6539999999999964, , , , , , , , , , , , frizFarRight.jpg, The force is backhand., right, , , , , frizFarRight.jpg, The force is backhand., right, 1, 0, 16, 5, 64024983, Wed Oct 04 2017 12:02:28 GMT-0400 (Eastern Daylight Time), Ultimate_Frisbee, 60
, , , , , , , , , , , , , , right, 1, 2.0709999999999695, , , , , , , , , , , , frizFarLeft.jpg, The force is away., right, , , , , frizFarLeft.jpg, The force is away., right, 1, 1, 17, 12, 64024983, Wed Oct 04 2017 12:02:28 GMT-0400 (Eastern Daylight Time), Ultimate_Frisbee, 60
, , , , , , , , , , , , , , left, 1, 1.4700000000000273, , , , , , , , , , , , frizFarRight.jpg, The force is forehand., left, , , , , frizFarRight.jpg, The force is forehand., left, 1, 2, 18, 1, 64024983, Wed Oct 04 2017 12:02:28 GMT-0400 (Eastern Daylight Time), Ultimate_Frisbee, 60
, , , , , , , , , , , , , , left, 1, 1.4710000000000036, , , , , , , , , , , , frizFarLeft.jpg, The force is home., left, , , , , frizFarLeft.jpg, The force is home., left, 1, 3, 19, 8, 64024983, Wed Oct 04 2017 12:02:28 GMT-0400 (Eastern Daylight Time), Ultimate_Frisbee, 60
, , , , , , , , , , , , , , right, 1, 1.7709999999999582, , , , , , , , , , , , frizNearRight.jpg, The force is forehand., right, , , , , frizNearRight.jpg, The force is forehand., right, 1, 4, 20, 3, 64024983, Wed Oct 04 2017 12:02:28 GMT-0400 (Eastern Daylight Time), Ultimate_Frisbee, 60
, , , , , , , , , , , , , , right, 1, 1.9539999999999509, , , , , , , , , , , , frizFarLeft.jpg, The force is backhand., right, , , , , frizFarLeft.jpg, The force is backhand., right, 1, 5, 21, 4, 64024983, Wed Oct 04 2017 12:02:28 GMT-0400 (Eastern Daylight Time), Ultimate_Frisbee, 60
, , , , , , , , , , , , , , left, 1, 0.9189999999999827, , , , , , , , , , , , frizFarLeft.jpg, The force is forehand., left, , , , , frizFarLeft.jpg, The force is forehand., left, 1, 6, 22, 0, 64024983, Wed Oct 04 2017 12:02:28 GMT-0400 (Eastern Daylight Time), Ultimate_Frisbee, 60
, , , , , , , , , , , , , , right, 1, 1.0020000000000095, , , , , , , , , , , , frizNearLeft.jpg, The force is forehand., right, , , , , frizNearLeft.jpg, The force is forehand., right, 1, 7, 23, 2, 64024983, Wed Oct 04 2017 12:02:28 GMT-0400 (Eastern Daylight Time), Ultimate_Frisbee, 60
, , , , , , , , , , , , , , right, 1, 1.436999999999955, , , , , , , , , , , , frizFarRight.jpg, The force is home., right, , , , , frizFarRight.jpg, The force is home., right, 1, 8, 24, 9, 64024983, Wed Oct 04 2017 12:02:28 GMT-0400 (Eastern Daylight Time), Ultimate_Frisbee, 60
, , , , , , , , , , , , , , left, 1, 1.0020000000000095, , , , , , , , , , , , frizNearLeft.jpg, The force is home., left, , , , , frizNearLeft.jpg, The force is home., left, 1, 9, 25, 10, 64024983, Wed Oct 04 2017 12:02:28 GMT-0400 (Eastern Daylight Time), Ultimate_Frisbee, 60
, , , , , , , , , , , , , , right, 1, 0.7680000000000291, , , , , , , , , , , , frizNearLeft.jpg, The force is away., right, , , , , frizNearLeft.jpg, The force is away., right, 1, 10, 26, 14, 64024983, Wed Oct 04 2017 12:02:28 GMT-0400 (Eastern Daylight Time), Ultimate_Frisbee, 60
, , , , , , , , , , , , , , right, 1, 0.9350000000000591, , , , , , , , , , , , frizNearRight.jpg, The force is home., right, , , , , frizNearRight.jpg, The force is home., right, 1, 11, 27, 11, 64024983, Wed Oct 04 2017 12:02:28 GMT-0400 (Eastern Daylight Time), Ultimate_Frisbee, 60
, , , , , , , , , , , , , , left, 1, 1.4699999999999136, , , , , , , , , , , , frizNearLeft.jpg, The force is backhand., left, , , , , frizNearLeft.jpg, The force is backhand., left, 1, 12, 28, 6, 64024983, Wed Oct 04 2017 12:02:28 GMT-0400 (Eastern Daylight Time), Ultimate_Frisbee, 60
, , , , , , , , , , , , , , left, 1, 1.5539999999999736, , , , , , , , , , , , frizNearRight.jpg, The force is away., left, , , , , frizNearRight.jpg, The force is away., left, 1, 13, 29, 15, 64024983, Wed Oct 04 2017 12:02:28 GMT-0400 (Eastern Daylight Time), Ultimate_Frisbee, 60
, , , , , , , , , , , , , , left, 1, 3.4400000000000546, , , , , , , , , , , , frizNearRight.jpg, The force is backhand., left, , , , , frizNearRight.jpg, The force is backhand., left, 1, 14, 30, 7, 64024983, Wed Oct 04 2017 12:02:28 GMT-0400 (Eastern Daylight Time), Ultimate_Frisbee, 60
, , , , , , , , , , , , , , left, 1, 3.0570000000000164, , , , , , , , , , , , frizFarRight.jpg, The force is away., left, , , , , frizFarRight.jpg, The force is away., left, 1, 15, 31, 13, 64024983, Wed Oct 04 2017 12:02:28 GMT-0400 (Eastern Daylight Time), Ultimate_Frisbee, 60
, , , , , , , , , , , , , , left, 1, 0.9690000000000509, , , , , , , , , , , , frizNearLeft.jpg, The force is home., left, , , , , frizNearLeft.jpg, The force is home., left, 2, 0, 32, 10, 64024983, Wed Oct 04 2017 12:02:28 GMT-0400 (Eastern Daylight Time), Ultimate_Frisbee, 60
, , , , , , , , , , , , , , left, 1, 0.9689999999999372, , , , , , , , , , , , frizFarRight.jpg, The force is away., left, , , , , frizFarRight.jpg, The force is away., left, 2, 1, 33, 13, 64024983, Wed Oct 04 2017 12:02:28 GMT-0400 (Eastern Daylight Time), Ultimate_Frisbee, 60
, , , , , , , , , , , , , , left, 1, 1.1520000000000437, , , , , , , , , , , , frizFarLeft.jpg, The force is home., left, , , , , frizFarLeft.jpg, The force is home., left, 2, 2, 34, 8, 64024983, Wed Oct 04 2017 12:02:28 GMT-0400 (Eastern Daylight Time), Ultimate_Frisbee, 60
, , , , , , , , , , , , , , right, 0, 1.23599999999999, , , , , , , , , , , , frizNearLeft.jpg, The force is backhand., left, , , , , frizNearLeft.jpg, The force is backhand., left, 2, 3, 35, 6, 64024983, Wed Oct 04 2017 12:02:28 GMT-0400 (Eastern Daylight Time), Ultimate_Frisbee, 60
, , , , , , , , , , , , , , right, 1, 1.669999999999959, , , , , , , , , , , , frizNearLeft.jpg, The force is away., right, , , , , frizNearLeft.jpg, The force is away., right, 2, 4, 36, 14, 64024983, Wed Oct 04 2017 12:02:28 GMT-0400 (Eastern Daylight Time), Ultimate_Frisbee, 60
, , , , , , , , , , , , , , left, 1, 1.5529999999999973, , , , , , , , , , , , frizFarLeft.jpg, The force is forehand., left, , , , , frizFarLeft.jpg, The force is forehand., left, 2, 5, 37, 0, 64024983, Wed Oct 04 2017 12:02:28 GMT-0400 (Eastern Daylight Time), Ultimate_Frisbee, 60
, , , , , , , , , , , , , , left, 1, 1.1019999999999754, , , , , , , , , , , , frizFarRight.jpg, The force is forehand., left, , , , , frizFarRight.jpg, The force is forehand., left, 2, 6, 38, 1, 64024983, Wed Oct 04 2017 12:02:28 GMT-0400 (Eastern Daylight Time), Ultimate_Frisbee, 60
, , , , , , , , , , , , , , right, 1, 0.98599999999999, , , , , , , , , , , , frizNearRight.jpg, The force is home., right, , , , , frizNearRight.jpg, The force is home., right, 2, 7, 39, 11, 64024983, Wed Oct 04 2017 12:02:28 GMT-0400 (Eastern Daylight Time), Ultimate_Frisbee, 60
, , , , , , , , , , , , , , right, 1, 0.9180000000000064, , , , , , , , , , , , frizNearLeft.jpg, The force is forehand., right, , , , , frizNearLeft.jpg, The force is forehand., right, 2, 8, 40, 2, 64024983, Wed Oct 04 2017 12:02:28 GMT-0400 (Eastern Daylight Time), Ultimate_Frisbee, 60
, , , , , , , , , , , , , , right, 1, 1.5860000000000127, , , , , , , , , , , , frizFarLeft.jpg, The force is backhand., right, , , , , frizFarLeft.jpg, The force is backhand., right, 2, 9, 41, 4, 64024983, Wed Oct 04 2017 12:02:28 GMT-0400 (Eastern Daylight Time), Ultimate_Frisbee, 60
, , , , , , , , , , , , , , left, 1, 1.56899999999996, , , , , , , , , , , , frizNearRight.jpg, The force is backhand., left, , , , , frizNearRight.jpg, The force is backhand., left, 2, 10, 42, 7, 64024983, Wed Oct 04 2017 12:02:28 GMT-0400 (Eastern Daylight Time), Ultimate_Frisbee, 60
, , , , , , , , , , , , , , left, 1, 1.65300000000002, , , , , , , , , , , , frizNearRight.jpg, The force is away., left, , , , , frizNearRight.jpg, The force is away., left, 2, 11, 43, 15, 64024983, Wed Oct 04 2017 12:02:28 GMT-0400 (Eastern Daylight Time), Ultimate_Frisbee, 60
, , , , , , , , , , , , , , right, 1, 1.15300000000002, , , , , , , , , , , , frizNearRight.jpg, The force is forehand., right, , , , , frizNearRight.jpg, The force is forehand., right, 2, 12, 44, 3, 64024983, Wed Oct 04 2017 12:02:28 GMT-0400 (Eastern Daylight Time), Ultimate_Frisbee, 60
, , , , , , , , , , , , , , right, 1, 1.136000000000081, , , , , , , , , , , , frizFarRight.jpg, The force is home., right, , , , , frizFarRight.jpg, The force is home., right, 2, 13, 45, 9, 64024983, Wed Oct 04 2017 12:02:28 GMT-0400 (Eastern Daylight Time), Ultimate_Frisbee, 60
, , , , , , , , , , , , , , right, 1, 1.336999999999989, , , , , , , , , , , , frizFarRight.jpg, The force is backhand., right, , , , , frizFarRight.jpg, The force is backhand., right, 2, 14, 46, 5, 64024983, Wed Oct 04 2017 12:02:28 GMT-0400 (Eastern Daylight Time), Ultimate_Frisbee, 60
, , , , , , , , , , , , , , right, 1, 1.7039999999999509, , , , , , , , , , , , frizFarLeft.jpg, The force is away., right, , , , , frizFarLeft.jpg, The force is away., right, 2, 15, 47, 12, 64024983, Wed Oct 04 2017 12:02:28 GMT-0400 (Eastern Daylight Time), Ultimate_Frisbee, 60
, , , , , , , , , , , , , , left, 1, 2.13799999999992, , , , , , , , , , , , frizNearLeft.jpg, The force is backhand., left, , , , , frizNearLeft.jpg, The force is backhand., left, 3, 0, 48, 6, 64024983, Wed Oct 04 2017 12:02:28 GMT-0400 (Eastern Daylight Time), Ultimate_Frisbee, 60
, , , , , , , , , , , , , , right, 1, 0.8520000000000891, , , , , , , , , , , , frizFarLeft.jpg, The force is away., right, , , , , frizFarLeft.jpg, The force is away., right, 3, 1, 49, 12, 64024983, Wed Oct 04 2017 12:02:28 GMT-0400 (Eastern Daylight Time), Ultimate_Frisbee, 60
, , , , , , , , , , , , , , left, 1, 1.40300000000002, , , , , , , , , , , , frizNearRight.jpg, The force is backhand., left, , , , , frizNearRight.jpg, The force is backhand., left, 3, 2, 50, 7, 64024983, Wed Oct 04 2017 12:02:28 GMT-0400 (Eastern Daylight Time), Ultimate_Frisbee, 60
, , , , , , , , , , , , , , right, 1, 1.0199999999999818, , , , , , , , , , , , frizFarRight.jpg, The force is home., right, , , , , frizFarRight.jpg, The force is home., right, 3, 3, 51, 9, 64024983, Wed Oct 04 2017 12:02:28 GMT-0400 (Eastern Daylight Time), Ultimate_Frisbee, 60
, , , , , , , , , , , , , , right, 1, 1.2029999999999745, , , , , , , , , , , , frizNearLeft.jpg, The force is away., right, , , , , frizNearLeft.jpg, The force is away., right, 3, 4, 52, 14, 64024983, Wed Oct 04 2017 12:02:28 GMT-0400 (Eastern Daylight Time), Ultimate_Frisbee, 60
, , , , , , , , , , , , , , left, 1, 0.9020000000000437, , , , , , , , , , , , frizNearLeft.jpg, The force is home., left, , , , , frizNearLeft.jpg, The force is home., left, 3, 5, 53, 10, 64024983, Wed Oct 04 2017 12:02:28 GMT-0400 (Eastern Daylight Time), Ultimate_Frisbee, 60
, , , , , , , , , , , , , , left, 1, 1.1029999999999518, , , , , , , , , , , , frizFarRight.jpg, The force is forehand., left, , , , , frizFarRight.jpg, The force is forehand., left, 3, 6, 54, 1, 64024983, Wed Oct 04 2017 12:02:28 GMT-0400 (Eastern Daylight Time), Ultimate_Frisbee, 60
, , , , , , , , , , , , , , right, 0, 0.7680000000000291, , , , , , , , , , , , frizFarRight.jpg, The force is away., left, , , , , frizFarRight.jpg, The force is away., left, 3, 7, 55, 13, 64024983, Wed Oct 04 2017 12:02:28 GMT-0400 (Eastern Daylight Time), Ultimate_Frisbee, 60
, , , , , , , , , , , , , , left, 1, 1.6539999999999964, , , , , , , , , , , , frizFarLeft.jpg, The force is forehand., left, , , , , frizFarLeft.jpg, The force is forehand., left, 3, 8, 56, 0, 64024983, Wed Oct 04 2017 12:02:28 GMT-0400 (Eastern Daylight Time), Ultimate_Frisbee, 60
, , , , , , , , , , , , , , right, 1, 1.0860000000000127, , , , , , , , , , , , frizNearRight.jpg, The force is home., right, , , , , frizNearRight.jpg, The force is home., right, 3, 9, 57, 11, 64024983, Wed Oct 04 2017 12:02:28 GMT-0400 (Eastern Daylight Time), Ultimate_Frisbee, 60
, , , , , , , , , , , , , , right, 1, 3.240000000000009, , , , , , , , , , , , frizNearRight.jpg, The force is forehand., right, , , , , frizNearRight.jpg, The force is forehand., right, 3, 10, 58, 3, 64024983, Wed Oct 04 2017 12:02:28 GMT-0400 (Eastern Daylight Time), Ultimate_Frisbee, 60
, , , , , , , , , , , , , , right, 1, 1.4029999999999063, , , , , , , , , , , , frizFarLeft.jpg, The force is backhand., right, , , , , frizFarLeft.jpg, The force is backhand., right, 3, 11, 59, 4, 64024983, Wed Oct 04 2017 12:02:28 GMT-0400 (Eastern Daylight Time), Ultimate_Frisbee, 60
, , , , , , , , , , , , , , right, 1, 0.8849999999999909, , , , , , , , , , , , frizFarRight.jpg, The force is backhand., right, , , , , frizFarRight.jpg, The force is backhand., right, 3, 12, 60, 5, 64024983, Wed Oct 04 2017 12:02:28 GMT-0400 (Eastern Daylight Time), Ultimate_Frisbee, 60
, , , , , , , , , , , , , , right, 1, 1.1190000000000282, , , , , , , , , , , , frizNearLeft.jpg, The force is forehand., right, , , , , frizNearLeft.jpg, The force is forehand., right, 3, 13, 61, 2, 64024983, Wed Oct 04 2017 12:02:28 GMT-0400 (Eastern Daylight Time), Ultimate_Frisbee, 60
, , , , , , , , , , , , , , left, 1, 1.1019999999999754, , , , , , , , , , , , frizNearRight.jpg, The force is away., left, , , , , frizNearRight.jpg, The force is away., left, 3, 14, 62, 15, 64024983, Wed Oct 04 2017 12:02:28 GMT-0400 (Eastern Daylight Time), Ultimate_Frisbee, 60
, , , , , , , , , , , , , , left, 1, 0.7850000000000819, , , , , , , , , , , , frizFarLeft.jpg, The force is home., left, , , , , frizFarLeft.jpg, The force is home., left, 3, 15, 63, 8, 64024983, Wed Oct 04 2017 12:02:28 GMT-0400 (Eastern Daylight Time), Ultimate_Frisbee, 60
