Continue.keys, Continue.rt, instructions_response.keys, instructions_response.rt, repeat_response.keys, repeat_response.rt, key_resp_5.keys, key_resp_5.rt, key_resp_2.keys, key_resp_2.rt, key_resp_4.keys, key_resp_4.rt, Trials_response.keys, Trials_response.corr, Trials_response.rt, Block_Continue.keys, Block_Continue.rt, Image, instructions_1_loop.thisRepN, instructions_1_loop.thisTrialN, instructions_1_loop.thisN, instructions_1_loop.thisIndex, instructions_2_repeat.thisRepN, instructions_2_repeat.thisTrialN, instructions_2_repeat.thisN, instructions_2_repeat.thisIndex, stim, prompt, answer, trials_2.thisRepN, trials_2.thisTrialN, trials_2.thisN, trials_2.thisIndex, stim, prompt, answer, trials.thisRepN, trials.thisTrialN, trials.thisN, trials.thisIndex, participant, date, expName, frameRate
space, 1.2390000000000008, space, 2.968, , , , , , , , , , , , , , Slide1.JPG, 0, 0, 0, 0, , , , , , , , , , , , , , , , , , , 64221150, Fri Oct 20 2017 12:20:56 GMT-0400 (Eastern Daylight Time), Ultimate_Frisbee, 60
, , space, 8.492, , , , , , , , , , , , , , Slide2.JPG, 0, 1, 1, 1, , , , , , , , , , , , , , , , , , , 64221150, Fri Oct 20 2017 12:20:56 GMT-0400 (Eastern Daylight Time), Ultimate_Frisbee, 60
, , space, 10.527000000000001, , , , , , , , , , , , , , Slide3.JPG, 0, 2, 2, 2, , , , , , , , , , , , , , , , , , , 64221150, Fri Oct 20 2017 12:20:56 GMT-0400 (Eastern Daylight Time), Ultimate_Frisbee, 60
, , space, 6.949999999999996, , , , , , , , , , , , , , Slide4.JPG, 0, 3, 3, 3, , , , , , , , , , , , , , , , , , , 64221150, Fri Oct 20 2017 12:20:56 GMT-0400 (Eastern Daylight Time), Ultimate_Frisbee, 60
, , space, 9.847999999999999, , , , , , , , , , , , , , Slide5.JPG, 0, 4, 4, 4, , , , , , , , , , , , , , , , , , , 64221150, Fri Oct 20 2017 12:20:56 GMT-0400 (Eastern Daylight Time), Ultimate_Frisbee, 60
, , space, 7.728999999999999, , , , , , , , , , , , , , Slide6.JPG, 0, 5, 5, 5, , , , , , , , , , , , , , , , , , , 64221150, Fri Oct 20 2017 12:20:56 GMT-0400 (Eastern Daylight Time), Ultimate_Frisbee, 60
, , space, 7.662000000000006, , , , , , , , , , , , , , Slide7.JPG, 0, 6, 6, 6, , , , , , , , , , , , , , , , , , , 64221150, Fri Oct 20 2017 12:20:56 GMT-0400 (Eastern Daylight Time), Ultimate_Frisbee, 60
, , space, 6.899000000000001, , , , , , , , , , , , , , Slide8.JPG, 0, 7, 7, 7, , , , , , , , , , , , , , , , , , , 64221150, Fri Oct 20 2017 12:20:56 GMT-0400 (Eastern Daylight Time), Ultimate_Frisbee, 60
, , space, 2.5600000000000023, , , , , , , , , , , , , , Slide9.JPG, 0, 8, 8, 8, , , , , , , , , , , , , , , , , , , 64221150, Fri Oct 20 2017 12:20:56 GMT-0400 (Eastern Daylight Time), Ultimate_Frisbee, 60
, , space, 4.576999999999998, , , , , , , , , , , , , , Slide10.JPG, 0, 9, 9, 9, , , , , , , , , , , , , , , , , , , 64221150, Fri Oct 20 2017 12:20:56 GMT-0400 (Eastern Daylight Time), Ultimate_Frisbee, 60
, , space, 2.034000000000006, , , , , , , , , , , , , , Slide11.JPG, 0, 10, 10, 10, , , , , , , , , , , , , , , , , , , 64221150, Fri Oct 20 2017 12:20:56 GMT-0400 (Eastern Daylight Time), Ultimate_Frisbee, 60
, , space, 0.8990000000000009, , , , , , , , , , , , , , Slide12.JPG, 0, 11, 11, 11, , , , , , , , , , , , , , , , , , , 64221150, Fri Oct 20 2017 12:20:56 GMT-0400 (Eastern Daylight Time), Ultimate_Frisbee, 60
, , space, 3.882000000000005, , , , , , , , , , , , , , Slide13.JPG, 0, 12, 12, 12, , , , , , , , , , , , , , , , , , , 64221150, Fri Oct 20 2017 12:20:56 GMT-0400 (Eastern Daylight Time), Ultimate_Frisbee, 60
, , space, 2.1869999999999976, , , , , , , , , , , , , , Slide14.JPG, 0, 13, 13, 13, , , , , , , , , , , , , , , , , , , 64221150, Fri Oct 20 2017 12:20:56 GMT-0400 (Eastern Daylight Time), Ultimate_Frisbee, 60
, , , , 0, 3.948999999999998, space, 3.6780000000000115, left, 1.8970000000000056, , , , , , , , , , , , , , , , , frizFarLeft.jpg, The force is forehand., left, 0, 0, 0, 0, frizFarLeft.jpg, The force is forehand., left, , , , , 64221150, Fri Oct 20 2017 12:20:56 GMT-0400 (Eastern Daylight Time), Ultimate_Frisbee, 60
, , , , , , , , right, 1.9480000000000075, , , , , , , , , , , , , , , , , frizNearLeft.jpg, The force is away., right, 0, 1, 1, 1, frizNearLeft.jpg, The force is away., right, , , , , 64221150, Fri Oct 20 2017 12:20:56 GMT-0400 (Eastern Daylight Time), Ultimate_Frisbee, 60
, , , , , , , , left, 1.2879999999999967, , , , , , , , , , , , , , , , , frizFarRight.jpg, The force is backhand., right, 0, 2, 2, 2, frizFarRight.jpg, The force is backhand., right, , , , , 64221150, Fri Oct 20 2017 12:20:56 GMT-0400 (Eastern Daylight Time), Ultimate_Frisbee, 60
, , , , , , , , right, 1.0330000000000155, , , , , , , , , , , , , , , , , frizNearRight.jpg, The force is home., right, 0, 3, 3, 3, frizNearRight.jpg, The force is home., right, , , , , 64221150, Fri Oct 20 2017 12:20:56 GMT-0400 (Eastern Daylight Time), Ultimate_Frisbee, 60
, , , , , , , , left, 1.1180000000000234, , , , , , , , , , , , , , , , , frizNearLeft.jpg, The force is backhand., left, 0, 4, 4, 4, frizNearLeft.jpg, The force is backhand., left, , , , , 64221150, Fri Oct 20 2017 12:20:56 GMT-0400 (Eastern Daylight Time), Ultimate_Frisbee, 60
, , , , , , , , right, 0.7460000000000093, , , , , , , , , , , , , , , , , frizNearRight.jpg, The force is home., right, 0, 5, 5, 5, frizNearRight.jpg, The force is home., right, , , , , 64221150, Fri Oct 20 2017 12:20:56 GMT-0400 (Eastern Daylight Time), Ultimate_Frisbee, 60
, , , , , , , , right, 1.3380000000000223, , , , , , , , , , , , , , , , , frizNearLeft.jpg, The force is away., right, 0, 6, 6, 6, frizNearLeft.jpg, The force is away., right, , , , , 64221150, Fri Oct 20 2017 12:20:56 GMT-0400 (Eastern Daylight Time), Ultimate_Frisbee, 60
, , , , , , , , left, 1.524000000000001, , , , , , , , , , , , , , , , , frizFarLeft.jpg, The force is forehand., left, 0, 7, 7, 7, frizFarLeft.jpg, The force is forehand., left, , , , , 64221150, Fri Oct 20 2017 12:20:56 GMT-0400 (Eastern Daylight Time), Ultimate_Frisbee, 60
, , , , , , , , , , space, 6.679000000000002, left, 1, 0.9830000000000041, , , , , , , , , , , , frizFarLeft.jpg, The force is home., left, , , , , frizFarLeft.jpg, The force is home., left, 0, 0, 0, 8, 64221150, Fri Oct 20 2017 12:20:56 GMT-0400 (Eastern Daylight Time), Ultimate_Frisbee, 60
, , , , , , , , , , , , left, 1, 1.0840000000000032, , , , , , , , , , , , frizFarLeft.jpg, The force is forehand., left, , , , , frizFarLeft.jpg, The force is forehand., left, 0, 1, 1, 0, 64221150, Fri Oct 20 2017 12:20:56 GMT-0400 (Eastern Daylight Time), Ultimate_Frisbee, 60
, , , , , , , , , , , , right, 1, 1.0180000000000007, , , , , , , , , , , , frizNearLeft.jpg, The force is away., right, , , , , frizNearLeft.jpg, The force is away., right, 0, 2, 2, 14, 64221150, Fri Oct 20 2017 12:20:56 GMT-0400 (Eastern Daylight Time), Ultimate_Frisbee, 60
, , , , , , , , , , , , right, 1, 1.1520000000000152, , , , , , , , , , , , frizFarRight.jpg, The force is backhand., right, , , , , frizFarRight.jpg, The force is backhand., right, 0, 3, 3, 5, 64221150, Fri Oct 20 2017 12:20:56 GMT-0400 (Eastern Daylight Time), Ultimate_Frisbee, 60
, , , , , , , , , , , , left, 1, 1.2199999999999989, , , , , , , , , , , , frizNearRight.jpg, The force is away., left, , , , , frizNearRight.jpg, The force is away., left, 0, 4, 4, 15, 64221150, Fri Oct 20 2017 12:20:56 GMT-0400 (Eastern Daylight Time), Ultimate_Frisbee, 60
, , , , , , , , , , , , right, 1, 1.1019999999999754, , , , , , , , , , , , frizNearLeft.jpg, The force is forehand., right, , , , , frizNearLeft.jpg, The force is forehand., right, 0, 5, 5, 2, 64221150, Fri Oct 20 2017 12:20:56 GMT-0400 (Eastern Daylight Time), Ultimate_Frisbee, 60
, , , , , , , , , , , , right, 1, 0.9320000000000164, , , , , , , , , , , , frizNearRight.jpg, The force is home., right, , , , , frizNearRight.jpg, The force is home., right, 0, 6, 6, 11, 64221150, Fri Oct 20 2017 12:20:56 GMT-0400 (Eastern Daylight Time), Ultimate_Frisbee, 60
, , , , , , , , , , , , left, 1, 1.1189999999999998, , , , , , , , , , , , frizNearRight.jpg, The force is backhand., left, , , , , frizNearRight.jpg, The force is backhand., left, 0, 7, 7, 7, 64221150, Fri Oct 20 2017 12:20:56 GMT-0400 (Eastern Daylight Time), Ultimate_Frisbee, 60
, , , , , , , , , , , , right, 1, 1.0689999999999884, , , , , , , , , , , , frizFarLeft.jpg, The force is away., right, , , , , frizFarLeft.jpg, The force is away., right, 0, 8, 8, 12, 64221150, Fri Oct 20 2017 12:20:56 GMT-0400 (Eastern Daylight Time), Ultimate_Frisbee, 60
, , , , , , , , , , , , left, 1, 1.1359999999999957, , , , , , , , , , , , frizNearLeft.jpg, The force is backhand., left, , , , , frizNearLeft.jpg, The force is backhand., left, 0, 9, 9, 6, 64221150, Fri Oct 20 2017 12:20:56 GMT-0400 (Eastern Daylight Time), Ultimate_Frisbee, 60
, , , , , , , , , , , , left, 1, 0.9659999999999798, , , , , , , , , , , , frizFarRight.jpg, The force is away., left, , , , , frizFarRight.jpg, The force is away., left, 0, 10, 10, 13, 64221150, Fri Oct 20 2017 12:20:56 GMT-0400 (Eastern Daylight Time), Ultimate_Frisbee, 60
, , , , , , , , , , , , left, 1, 1.5250000000000057, , , , , , , , , , , , frizFarRight.jpg, The force is forehand., left, , , , , frizFarRight.jpg, The force is forehand., left, 0, 11, 11, 1, 64221150, Fri Oct 20 2017 12:20:56 GMT-0400 (Eastern Daylight Time), Ultimate_Frisbee, 60
, , , , , , , , , , , , right, 1, 1.016999999999996, , , , , , , , , , , , frizFarRight.jpg, The force is home., right, , , , , frizFarRight.jpg, The force is home., right, 0, 12, 12, 9, 64221150, Fri Oct 20 2017 12:20:56 GMT-0400 (Eastern Daylight Time), Ultimate_Frisbee, 60
, , , , , , , , , , , , right, 1, 1.2199999999999989, , , , , , , , , , , , frizFarLeft.jpg, The force is backhand., right, , , , , frizFarLeft.jpg, The force is backhand., right, 0, 13, 13, 4, 64221150, Fri Oct 20 2017 12:20:56 GMT-0400 (Eastern Daylight Time), Ultimate_Frisbee, 60
, , , , , , , , , , , , left, 1, 1.8480000000000132, , , , , , , , , , , , frizNearLeft.jpg, The force is home., left, , , , , frizNearLeft.jpg, The force is home., left, 0, 14, 14, 10, 64221150, Fri Oct 20 2017 12:20:56 GMT-0400 (Eastern Daylight Time), Ultimate_Frisbee, 60
, , , , , , , , , , , , right, 1, 1.3389999999999986, , , , , , , , , , , , frizNearRight.jpg, The force is forehand., right, , , , , frizNearRight.jpg, The force is forehand., right, 0, 15, 15, 3, 64221150, Fri Oct 20 2017 12:20:56 GMT-0400 (Eastern Daylight Time), Ultimate_Frisbee, 60
, , , , , , , , , , , , left, 1, 1.203000000000003, , , , , , , , , , , , frizFarRight.jpg, The force is away., left, , , , , frizFarRight.jpg, The force is away., left, 1, 0, 16, 13, 64221150, Fri Oct 20 2017 12:20:56 GMT-0400 (Eastern Daylight Time), Ultimate_Frisbee, 60
, , , , , , , , , , , , left, 1, 0.7460000000000093, , , , , , , , , , , , frizNearLeft.jpg, The force is home., left, , , , , frizNearLeft.jpg, The force is home., left, 1, 1, 17, 10, 64221150, Fri Oct 20 2017 12:20:56 GMT-0400 (Eastern Daylight Time), Ultimate_Frisbee, 60
, , , , , , , , , , , , left, 1, 1.016999999999996, , , , , , , , , , , , frizNearLeft.jpg, The force is backhand., left, , , , , frizNearLeft.jpg, The force is backhand., left, 1, 2, 18, 6, 64221150, Fri Oct 20 2017 12:20:56 GMT-0400 (Eastern Daylight Time), Ultimate_Frisbee, 60
, , , , , , , , , , , , left, 1, 1.3899999999999864, , , , , , , , , , , , frizFarLeft.jpg, The force is forehand., left, , , , , frizFarLeft.jpg, The force is forehand., left, 1, 3, 19, 0, 64221150, Fri Oct 20 2017 12:20:56 GMT-0400 (Eastern Daylight Time), Ultimate_Frisbee, 60
, , , , , , , , , , , , right, 1, 1.085000000000008, , , , , , , , , , , , frizNearLeft.jpg, The force is away., right, , , , , frizNearLeft.jpg, The force is away., right, 1, 4, 20, 14, 64221150, Fri Oct 20 2017 12:20:56 GMT-0400 (Eastern Daylight Time), Ultimate_Frisbee, 60
, , , , , , , , , , , , right, 1, 0.9830000000000041, , , , , , , , , , , , frizNearRight.jpg, The force is forehand., right, , , , , frizNearRight.jpg, The force is forehand., right, 1, 5, 21, 3, 64221150, Fri Oct 20 2017 12:20:56 GMT-0400 (Eastern Daylight Time), Ultimate_Frisbee, 60
, , , , , , , , , , , , left, 1, 0.7810000000000059, , , , , , , , , , , , frizNearRight.jpg, The force is backhand., left, , , , , frizNearRight.jpg, The force is backhand., left, 1, 6, 22, 7, 64221150, Fri Oct 20 2017 12:20:56 GMT-0400 (Eastern Daylight Time), Ultimate_Frisbee, 60
, , , , , , , , , , , , right, 1, 0.9830000000000041, , , , , , , , , , , , frizFarLeft.jpg, The force is away., right, , , , , frizFarLeft.jpg, The force is away., right, 1, 7, 23, 12, 64221150, Fri Oct 20 2017 12:20:56 GMT-0400 (Eastern Daylight Time), Ultimate_Frisbee, 60
, , , , , , , , , , , , right, 1, 1.2719999999999914, , , , , , , , , , , , frizFarRight.jpg, The force is home., right, , , , , frizFarRight.jpg, The force is home., right, 1, 8, 24, 9, 64221150, Fri Oct 20 2017 12:20:56 GMT-0400 (Eastern Daylight Time), Ultimate_Frisbee, 60
, , , , , , , , , , , , left, 1, 0.8979999999999961, , , , , , , , , , , , frizFarRight.jpg, The force is forehand., left, , , , , frizFarRight.jpg, The force is forehand., left, 1, 9, 25, 1, 64221150, Fri Oct 20 2017 12:20:56 GMT-0400 (Eastern Daylight Time), Ultimate_Frisbee, 60
, , , , , , , , , , , , left, 1, 0.8990000000000009, , , , , , , , , , , , frizFarLeft.jpg, The force is home., left, , , , , frizFarLeft.jpg, The force is home., left, 1, 10, 26, 8, 64221150, Fri Oct 20 2017 12:20:56 GMT-0400 (Eastern Daylight Time), Ultimate_Frisbee, 60
, , , , , , , , , , , , left, 1, 0.7959999999999923, , , , , , , , , , , , frizNearRight.jpg, The force is away., left, , , , , frizNearRight.jpg, The force is away., left, 1, 11, 27, 15, 64221150, Fri Oct 20 2017 12:20:56 GMT-0400 (Eastern Daylight Time), Ultimate_Frisbee, 60
, , , , , , , , , , , , right, 1, 1.3220000000000027, , , , , , , , , , , , frizFarRight.jpg, The force is backhand., right, , , , , frizFarRight.jpg, The force is backhand., right, 1, 12, 28, 5, 64221150, Fri Oct 20 2017 12:20:56 GMT-0400 (Eastern Daylight Time), Ultimate_Frisbee, 60
, , , , , , , , , , , , right, 1, 1.0330000000000155, , , , , , , , , , , , frizNearLeft.jpg, The force is forehand., right, , , , , frizNearLeft.jpg, The force is forehand., right, 1, 13, 29, 2, 64221150, Fri Oct 20 2017 12:20:56 GMT-0400 (Eastern Daylight Time), Ultimate_Frisbee, 60
, , , , , , , , , , , , right, 1, 0.9150000000000205, , , , , , , , , , , , frizNearRight.jpg, The force is home., right, , , , , frizNearRight.jpg, The force is home., right, 1, 14, 30, 11, 64221150, Fri Oct 20 2017 12:20:56 GMT-0400 (Eastern Daylight Time), Ultimate_Frisbee, 60
, , , , , , , , , , , , right, 1, 2.3220000000000027, , , , , , , , , , , , frizFarLeft.jpg, The force is backhand., right, , , , , frizFarLeft.jpg, The force is backhand., right, 1, 15, 31, 4, 64221150, Fri Oct 20 2017 12:20:56 GMT-0400 (Eastern Daylight Time), Ultimate_Frisbee, 60
, , , , , , , , , , , , right, 1, 0.9329999999999927, , , , , , , , , , , , frizNearRight.jpg, The force is forehand., right, , , , , frizNearRight.jpg, The force is forehand., right, 2, 0, 32, 3, 64221150, Fri Oct 20 2017 12:20:56 GMT-0400 (Eastern Daylight Time), Ultimate_Frisbee, 60
, , , , , , , , , , , , right, 1, 0.84699999999998, , , , , , , , , , , , frizFarRight.jpg, The force is home., right, , , , , frizFarRight.jpg, The force is home., right, 2, 1, 33, 9, 64221150, Fri Oct 20 2017 12:20:56 GMT-0400 (Eastern Daylight Time), Ultimate_Frisbee, 60
, , , , , , , , , , , , left, 1, 1.136000000000024, , , , , , , , , , , , frizFarRight.jpg, The force is away., left, , , , , frizFarRight.jpg, The force is away., left, 2, 2, 34, 13, 64221150, Fri Oct 20 2017 12:20:56 GMT-0400 (Eastern Daylight Time), Ultimate_Frisbee, 60
, , , , , , , , , , , , right, 1, 0.5419999999999732, , , , , , , , , , , , frizNearRight.jpg, The force is home., right, , , , , frizNearRight.jpg, The force is home., right, 2, 3, 35, 11, 64221150, Fri Oct 20 2017 12:20:56 GMT-0400 (Eastern Daylight Time), Ultimate_Frisbee, 60
, , , , , , , , , , , , left, 1, 1.136000000000024, , , , , , , , , , , , frizFarLeft.jpg, The force is forehand., left, , , , , frizFarLeft.jpg, The force is forehand., left, 2, 4, 36, 0, 64221150, Fri Oct 20 2017 12:20:56 GMT-0400 (Eastern Daylight Time), Ultimate_Frisbee, 60
, , , , , , , , , , , , right, 1, 0.8840000000000146, , , , , , , , , , , , frizNearLeft.jpg, The force is forehand., right, , , , , frizNearLeft.jpg, The force is forehand., right, 2, 5, 37, 2, 64221150, Fri Oct 20 2017 12:20:56 GMT-0400 (Eastern Daylight Time), Ultimate_Frisbee, 60
, , , , , , , , , , , , right, 1, 1.3559999999999945, , , , , , , , , , , , frizFarRight.jpg, The force is backhand., right, , , , , frizFarRight.jpg, The force is backhand., right, 2, 6, 38, 5, 64221150, Fri Oct 20 2017 12:20:56 GMT-0400 (Eastern Daylight Time), Ultimate_Frisbee, 60
, , , , , , , , , , , , left, 1, 0.7119999999999891, , , , , , , , , , , , frizFarRight.jpg, The force is forehand., left, , , , , frizFarRight.jpg, The force is forehand., left, 2, 7, 39, 1, 64221150, Fri Oct 20 2017 12:20:56 GMT-0400 (Eastern Daylight Time), Ultimate_Frisbee, 60
, , , , , , , , , , , , left, 1, 0.9320000000000164, , , , , , , , , , , , frizNearLeft.jpg, The force is backhand., left, , , , , frizNearLeft.jpg, The force is backhand., left, 2, 8, 40, 6, 64221150, Fri Oct 20 2017 12:20:56 GMT-0400 (Eastern Daylight Time), Ultimate_Frisbee, 60
, , , , , , , , , , , , left, 1, 0.9830000000000041, , , , , , , , , , , , frizFarLeft.jpg, The force is home., left, , , , , frizFarLeft.jpg, The force is home., left, 2, 9, 41, 8, 64221150, Fri Oct 20 2017 12:20:56 GMT-0400 (Eastern Daylight Time), Ultimate_Frisbee, 60
, , , , , , , , , , , , right, 1, 1.0849999999999795, , , , , , , , , , , , frizFarLeft.jpg, The force is backhand., right, , , , , frizFarLeft.jpg, The force is backhand., right, 2, 10, 42, 4, 64221150, Fri Oct 20 2017 12:20:56 GMT-0400 (Eastern Daylight Time), Ultimate_Frisbee, 60
, , , , , , , , , , , , left, 1, 0.7630000000000337, , , , , , , , , , , , frizNearLeft.jpg, The force is home., left, , , , , frizNearLeft.jpg, The force is home., left, 2, 11, 43, 10, 64221150, Fri Oct 20 2017 12:20:56 GMT-0400 (Eastern Daylight Time), Ultimate_Frisbee, 60
, , , , , , , , , , , , right, 1, 0.728999999999985, , , , , , , , , , , , frizNearLeft.jpg, The force is away., right, , , , , frizNearLeft.jpg, The force is away., right, 2, 12, 44, 14, 64221150, Fri Oct 20 2017 12:20:56 GMT-0400 (Eastern Daylight Time), Ultimate_Frisbee, 60
, , , , , , , , , , , , left, 1, 0.8360000000000127, , , , , , , , , , , , frizNearRight.jpg, The force is backhand., left, , , , , frizNearRight.jpg, The force is backhand., left, 2, 13, 45, 7, 64221150, Fri Oct 20 2017 12:20:56 GMT-0400 (Eastern Daylight Time), Ultimate_Frisbee, 60
, , , , , , , , , , , , right, 1, 0.9659999999999513, , , , , , , , , , , , frizFarLeft.jpg, The force is away., right, , , , , frizFarLeft.jpg, The force is away., right, 2, 14, 46, 12, 64221150, Fri Oct 20 2017 12:20:56 GMT-0400 (Eastern Daylight Time), Ultimate_Frisbee, 60
, , , , , , , , , , , , left, 1, 0.8300000000000409, , , , , , , , , , , , frizNearRight.jpg, The force is away., left, , , , , frizNearRight.jpg, The force is away., left, 2, 15, 47, 15, 64221150, Fri Oct 20 2017 12:20:56 GMT-0400 (Eastern Daylight Time), Ultimate_Frisbee, 60
, , , , , , , , , , , , right, 1, 0.7450000000000045, , , , , , , , , , , , frizNearRight.jpg, The force is home., right, , , , , frizNearRight.jpg, The force is home., right, 3, 0, 48, 11, 64221150, Fri Oct 20 2017 12:20:56 GMT-0400 (Eastern Daylight Time), Ultimate_Frisbee, 60
, , , , , , , , , , , , right, 1, 0.9829999999999472, , , , , , , , , , , , frizFarRight.jpg, The force is backhand., right, , , , , frizFarRight.jpg, The force is backhand., right, 3, 1, 49, 5, 64221150, Fri Oct 20 2017 12:20:56 GMT-0400 (Eastern Daylight Time), Ultimate_Frisbee, 60
, , , , , , , , , , , , right, 1, 1.0340000000000487, , , , , , , , , , , , frizNearRight.jpg, The force is forehand., right, , , , , frizNearRight.jpg, The force is forehand., right, 3, 2, 50, 3, 64221150, Fri Oct 20 2017 12:20:56 GMT-0400 (Eastern Daylight Time), Ultimate_Frisbee, 60
, , , , , , , , , , , , left, 1, 1.016999999999996, , , , , , , , , , , , frizFarRight.jpg, The force is away., left, , , , , frizFarRight.jpg, The force is away., left, 3, 3, 51, 13, 64221150, Fri Oct 20 2017 12:20:56 GMT-0400 (Eastern Daylight Time), Ultimate_Frisbee, 60
, , , , , , , , , , , , left, 1, 0.84699999999998, , , , , , , , , , , , frizNearLeft.jpg, The force is home., left, , , , , frizNearLeft.jpg, The force is home., left, 3, 4, 52, 10, 64221150, Fri Oct 20 2017 12:20:56 GMT-0400 (Eastern Daylight Time), Ultimate_Frisbee, 60
, , , , , , , , , , , , left, 1, 1.0679999999999836, , , , , , , , , , , , frizNearLeft.jpg, The force is backhand., left, , , , , frizNearLeft.jpg, The force is backhand., left, 3, 5, 53, 6, 64221150, Fri Oct 20 2017 12:20:56 GMT-0400 (Eastern Daylight Time), Ultimate_Frisbee, 60
, , , , , , , , , , , , left, 1, 0.7800000000000296, , , , , , , , , , , , frizFarLeft.jpg, The force is home., left, , , , , frizFarLeft.jpg, The force is home., left, 3, 6, 54, 8, 64221150, Fri Oct 20 2017 12:20:56 GMT-0400 (Eastern Daylight Time), Ultimate_Frisbee, 60
, , , , , , , , , , , , right, 1, 0.8139999999999645, , , , , , , , , , , , frizNearLeft.jpg, The force is away., right, , , , , frizNearLeft.jpg, The force is away., right, 3, 7, 55, 14, 64221150, Fri Oct 20 2017 12:20:56 GMT-0400 (Eastern Daylight Time), Ultimate_Frisbee, 60
, , , , , , , , , , , , right, 1, 1.15300000000002, , , , , , , , , , , , frizNearLeft.jpg, The force is forehand., right, , , , , frizNearLeft.jpg, The force is forehand., right, 3, 8, 56, 2, 64221150, Fri Oct 20 2017 12:20:56 GMT-0400 (Eastern Daylight Time), Ultimate_Frisbee, 60
, , , , , , , , , , , , left, 1, 0.8489999999999895, , , , , , , , , , , , frizNearRight.jpg, The force is away., left, , , , , frizNearRight.jpg, The force is away., left, 3, 9, 57, 15, 64221150, Fri Oct 20 2017 12:20:56 GMT-0400 (Eastern Daylight Time), Ultimate_Frisbee, 60
, , , , , , , , , , , , left, 1, 1.1359999999999673, , , , , , , , , , , , frizFarRight.jpg, The force is forehand., left, , , , , frizFarRight.jpg, The force is forehand., left, 3, 10, 58, 1, 64221150, Fri Oct 20 2017 12:20:56 GMT-0400 (Eastern Daylight Time), Ultimate_Frisbee, 60
, , , , , , , , , , , , left, 1, 1.136000000000024, , , , , , , , , , , , frizNearRight.jpg, The force is backhand., left, , , , , frizNearRight.jpg, The force is backhand., left, 3, 11, 59, 7, 64221150, Fri Oct 20 2017 12:20:56 GMT-0400 (Eastern Daylight Time), Ultimate_Frisbee, 60
, , , , , , , , , , , , right, 1, 1.0510000000000446, , , , , , , , , , , , frizFarRight.jpg, The force is home., right, , , , , frizFarRight.jpg, The force is home., right, 3, 12, 60, 9, 64221150, Fri Oct 20 2017 12:20:56 GMT-0400 (Eastern Daylight Time), Ultimate_Frisbee, 60
, , , , , , , , , , , , right, 1, 1.5600000000000023, , , , , , , , , , , , frizFarLeft.jpg, The force is away., right, , , , , frizFarLeft.jpg, The force is away., right, 3, 13, 61, 12, 64221150, Fri Oct 20 2017 12:20:56 GMT-0400 (Eastern Daylight Time), Ultimate_Frisbee, 60
, , , , , , , , , , , , left, 1, 1, , , , , , , , , , , , frizFarLeft.jpg, The force is forehand., left, , , , , frizFarLeft.jpg, The force is forehand., left, 3, 14, 62, 0, 64221150, Fri Oct 20 2017 12:20:56 GMT-0400 (Eastern Daylight Time), Ultimate_Frisbee, 60
, , , , , , , , , , , , right, 1, 0.9149999999999636, , , , , , , , , , , , frizFarLeft.jpg, The force is backhand., right, , , , , frizFarLeft.jpg, The force is backhand., right, 3, 15, 63, 4, 64221150, Fri Oct 20 2017 12:20:56 GMT-0400 (Eastern Daylight Time), Ultimate_Frisbee, 60
