Continue.keys, Continue.rt, instructions_response.keys, instructions_response.rt, repeat_response.keys, repeat_response.rt, key_resp_5.keys, key_resp_5.rt, key_resp_2.keys, key_resp_2.rt, key_resp_4.keys, key_resp_4.rt, Trials_response.keys, Trials_response.corr, Trials_response.rt, Block_Continue.keys, Block_Continue.rt, Image, instructions_1_loop.thisRepN, instructions_1_loop.thisTrialN, instructions_1_loop.thisN, instructions_1_loop.thisIndex, instructions_2_repeat.thisRepN, instructions_2_repeat.thisTrialN, instructions_2_repeat.thisN, instructions_2_repeat.thisIndex, stim, prompt, answer, trials_2.thisRepN, trials_2.thisTrialN, trials_2.thisN, trials_2.thisIndex, stim, prompt, answer, trials.thisRepN, trials.thisTrialN, trials.thisN, trials.thisIndex, participant, date, expName, frameRate
space, 0.6500000000000004, space, 3.150999999999999, , , , , , , , , , , , , , Slide1.JPG, 0, 0, 0, 0, , , , , , , , , , , , , , , , , , , 86763169, Mon Aug 21 2017 10:04:31 GMT-0400 (EDT), Ultimate_Frisbee, 60
, , space, 30.787999999999997, , , , , , , , , , , , , , Slide2.JPG, 0, 1, 1, 1, , , , , , , , , , , , , , , , , , , 86763169, Mon Aug 21 2017 10:04:31 GMT-0400 (EDT), Ultimate_Frisbee, 60
, , space, 9.002000000000002, , , , , , , , , , , , , , Slide3.JPG, 0, 2, 2, 2, , , , , , , , , , , , , , , , , , , 86763169, Mon Aug 21 2017 10:04:31 GMT-0400 (EDT), Ultimate_Frisbee, 60
, , space, 4.366999999999997, , , , , , , , , , , , , , Slide4.JPG, 0, 3, 3, 3, , , , , , , , , , , , , , , , , , , 86763169, Mon Aug 21 2017 10:04:31 GMT-0400 (EDT), Ultimate_Frisbee, 60
, , space, 26.705, , , , , , , , , , , , , , Slide5.JPG, 0, 4, 4, 4, , , , , , , , , , , , , , , , , , , 86763169, Mon Aug 21 2017 10:04:31 GMT-0400 (EDT), Ultimate_Frisbee, 60
, , space, 14.25200000000001, , , , , , , , , , , , , , Slide6.JPG, 0, 5, 5, 5, , , , , , , , , , , , , , , , , , , 86763169, Mon Aug 21 2017 10:04:31 GMT-0400 (EDT), Ultimate_Frisbee, 60
, , space, 9.385000000000005, , , , , , , , , , , , , , Slide7.JPG, 0, 6, 6, 6, , , , , , , , , , , , , , , , , , , 86763169, Mon Aug 21 2017 10:04:31 GMT-0400 (EDT), Ultimate_Frisbee, 60
, , space, 7.300999999999988, , , , , , , , , , , , , , Slide8.JPG, 0, 7, 7, 7, , , , , , , , , , , , , , , , , , , 86763169, Mon Aug 21 2017 10:04:31 GMT-0400 (EDT), Ultimate_Frisbee, 60
, , space, 9.451999999999998, , , , , , , , , , , , , , Slide9.JPG, 0, 8, 8, 8, , , , , , , , , , , , , , , , , , , 86763169, Mon Aug 21 2017 10:04:31 GMT-0400 (EDT), Ultimate_Frisbee, 60
, , space, 15.468999999999994, , , , , , , , , , , , , , Slide10.JPG, 0, 9, 9, 9, , , , , , , , , , , , , , , , , , , 86763169, Mon Aug 21 2017 10:04:31 GMT-0400 (EDT), Ultimate_Frisbee, 60
, , space, 4.918000000000006, , , , , , , , , , , , , , Slide11.JPG, 0, 10, 10, 10, , , , , , , , , , , , , , , , , , , 86763169, Mon Aug 21 2017 10:04:31 GMT-0400 (EDT), Ultimate_Frisbee, 60
, , space, 1.516999999999996, , , , , , , , , , , , , , Slide12.JPG, 0, 11, 11, 11, , , , , , , , , , , , , , , , , , , 86763169, Mon Aug 21 2017 10:04:31 GMT-0400 (EDT), Ultimate_Frisbee, 60
, , space, 4.501000000000005, , , , , , , , , , , , , , Slide13.JPG, 0, 12, 12, 12, , , , , , , , , , , , , , , , , , , 86763169, Mon Aug 21 2017 10:04:31 GMT-0400 (EDT), Ultimate_Frisbee, 60
, , space, 2.4339999999999975, , , , , , , , , , , , , , Slide14.JPG, 0, 13, 13, 13, , , , , , , , , , , , , , , , , , , 86763169, Mon Aug 21 2017 10:04:31 GMT-0400 (EDT), Ultimate_Frisbee, 60
, , , , 0, 7.100999999999999, space, 2.8500000000000227, left, 2.731000000000023, , , , , , , , , , , , , , , , , frizFarLeft.jpg, The force is forehand., left, 0, 0, 0, 0, frizFarLeft.jpg, The force is forehand., left, , , , , 86763169, Mon Aug 21 2017 10:04:31 GMT-0400 (EDT), Ultimate_Frisbee, 60
, , , , , , , , right, 1.9170000000000016, , , , , , , , , , , , , , , , , frizNearLeft.jpg, The force is away., right, 0, 1, 1, 1, frizNearLeft.jpg, The force is away., right, , , , , 86763169, Mon Aug 21 2017 10:04:31 GMT-0400 (EDT), Ultimate_Frisbee, 60
, , , , , , , , right, 1.3160000000000025, , , , , , , , , , , , , , , , , frizFarRight.jpg, The force is backhand., right, 0, 2, 2, 2, frizFarRight.jpg, The force is backhand., right, , , , , 86763169, Mon Aug 21 2017 10:04:31 GMT-0400 (EDT), Ultimate_Frisbee, 60
, , , , , , , , right, 1.217000000000013, , , , , , , , , , , , , , , , , frizNearRight.jpg, The force is home., right, 0, 3, 3, 3, frizNearRight.jpg, The force is home., right, , , , , 86763169, Mon Aug 21 2017 10:04:31 GMT-0400 (EDT), Ultimate_Frisbee, 60
, , , , , , , , left, 1.5660000000000025, , , , , , , , , , , , , , , , , frizNearLeft.jpg, The force is backhand., left, 0, 4, 4, 4, frizNearLeft.jpg, The force is backhand., left, , , , , 86763169, Mon Aug 21 2017 10:04:31 GMT-0400 (EDT), Ultimate_Frisbee, 60
, , , , , , , , right, 1.0829999999999984, , , , , , , , , , , , , , , , , frizNearRight.jpg, The force is home., right, 0, 5, 5, 5, frizNearRight.jpg, The force is home., right, , , , , 86763169, Mon Aug 21 2017 10:04:31 GMT-0400 (EDT), Ultimate_Frisbee, 60
, , , , , , , , right, 1.8489999999999895, , , , , , , , , , , , , , , , , frizNearLeft.jpg, The force is away., right, 0, 6, 6, 6, frizNearLeft.jpg, The force is away., right, , , , , 86763169, Mon Aug 21 2017 10:04:31 GMT-0400 (EDT), Ultimate_Frisbee, 60
, , , , , , , , left, 0.9329999999999927, , , , , , , , , , , , , , , , , frizFarLeft.jpg, The force is forehand., left, 0, 7, 7, 7, frizFarLeft.jpg, The force is forehand., left, , , , , 86763169, Mon Aug 21 2017 10:04:31 GMT-0400 (EDT), Ultimate_Frisbee, 60
, , , , , , , , , , space, 2.967000000000013, left, 1, 0.7169999999999845, , , , , , , , , , , , frizNearRight.jpg, The force is away., left, , , , , frizNearRight.jpg, The force is away., left, 0, 0, 0, 15, 86763169, Mon Aug 21 2017 10:04:31 GMT-0400 (EDT), Ultimate_Frisbee, 60
, , , , , , , , , , , , right, 1, 2.399000000000001, , , , , , , , , , , , frizFarLeft.jpg, The force is backhand., right, , , , , frizFarLeft.jpg, The force is backhand., right, 0, 1, 1, 4, 86763169, Mon Aug 21 2017 10:04:31 GMT-0400 (EDT), Ultimate_Frisbee, 60
, , , , , , , , , , , , right, 1, 2.1159999999999854, , , , , , , , , , , , frizNearRight.jpg, The force is forehand., right, , , , , frizNearRight.jpg, The force is forehand., right, 0, 2, 2, 3, 86763169, Mon Aug 21 2017 10:04:31 GMT-0400 (EDT), Ultimate_Frisbee, 60
, , , , , , , , , , , , right, 1, 0.8160000000000025, , , , , , , , , , , , frizNearRight.jpg, The force is home., right, , , , , frizNearRight.jpg, The force is home., right, 0, 3, 3, 11, 86763169, Mon Aug 21 2017 10:04:31 GMT-0400 (EDT), Ultimate_Frisbee, 60
, , , , , , , , , , , , left, 1, 1, , , , , , , , , , , , frizFarRight.jpg, The force is forehand., left, , , , , frizFarRight.jpg, The force is forehand., left, 0, 4, 4, 1, 86763169, Mon Aug 21 2017 10:04:31 GMT-0400 (EDT), Ultimate_Frisbee, 60
, , , , , , , , , , , , right, 1, 0.8659999999999854, , , , , , , , , , , , frizFarLeft.jpg, The force is away., right, , , , , frizFarLeft.jpg, The force is away., right, 0, 5, 5, 12, 86763169, Mon Aug 21 2017 10:04:31 GMT-0400 (EDT), Ultimate_Frisbee, 60
, , , , , , , , , , , , left, 1, 0.7830000000000155, , , , , , , , , , , , frizFarLeft.jpg, The force is home., left, , , , , frizFarLeft.jpg, The force is home., left, 0, 6, 6, 8, 86763169, Mon Aug 21 2017 10:04:31 GMT-0400 (EDT), Ultimate_Frisbee, 60
, , , , , , , , , , , , right, 1, 0.8669999999999618, , , , , , , , , , , , frizNearLeft.jpg, The force is forehand., right, , , , , frizNearLeft.jpg, The force is forehand., right, 0, 7, 7, 2, 86763169, Mon Aug 21 2017 10:04:31 GMT-0400 (EDT), Ultimate_Frisbee, 60
, , , , , , , , , , , , right, 1, 0.9840000000000373, , , , , , , , , , , , frizFarRight.jpg, The force is home., right, , , , , frizFarRight.jpg, The force is home., right, 0, 8, 8, 9, 86763169, Mon Aug 21 2017 10:04:31 GMT-0400 (EDT), Ultimate_Frisbee, 60
, , , , , , , , , , , , left, 1, 1.2160000000000082, , , , , , , , , , , , frizFarLeft.jpg, The force is forehand., left, , , , , frizFarLeft.jpg, The force is forehand., left, 0, 9, 9, 0, 86763169, Mon Aug 21 2017 10:04:31 GMT-0400 (EDT), Ultimate_Frisbee, 60
, , , , , , , , , , , , right, 1, 1.1830000000000496, , , , , , , , , , , , frizNearLeft.jpg, The force is away., right, , , , , frizNearLeft.jpg, The force is away., right, 0, 10, 10, 14, 86763169, Mon Aug 21 2017 10:04:31 GMT-0400 (EDT), Ultimate_Frisbee, 60
, , , , , , , , , , , , left, 1, 1.1339999999999577, , , , , , , , , , , , frizFarRight.jpg, The force is away., left, , , , , frizFarRight.jpg, The force is away., left, 0, 11, 11, 13, 86763169, Mon Aug 21 2017 10:04:31 GMT-0400 (EDT), Ultimate_Frisbee, 60
, , , , , , , , , , , , left, 1, 1.3340000000000032, , , , , , , , , , , , frizNearRight.jpg, The force is backhand., left, , , , , frizNearRight.jpg, The force is backhand., left, 0, 12, 12, 7, 86763169, Mon Aug 21 2017 10:04:31 GMT-0400 (EDT), Ultimate_Frisbee, 60
, , , , , , , , , , , , right, 1, 1.6829999999999927, , , , , , , , , , , , frizFarRight.jpg, The force is backhand., right, , , , , frizFarRight.jpg, The force is backhand., right, 0, 13, 13, 5, 86763169, Mon Aug 21 2017 10:04:31 GMT-0400 (EDT), Ultimate_Frisbee, 60
, , , , , , , , , , , , left, 1, 1.1340000000000146, , , , , , , , , , , , frizNearLeft.jpg, The force is home., left, , , , , frizNearLeft.jpg, The force is home., left, 0, 14, 14, 10, 86763169, Mon Aug 21 2017 10:04:31 GMT-0400 (EDT), Ultimate_Frisbee, 60
, , , , , , , , , , , , left, 1, 1.4169999999999732, , , , , , , , , , , , frizNearLeft.jpg, The force is backhand., left, , , , , frizNearLeft.jpg, The force is backhand., left, 0, 15, 15, 6, 86763169, Mon Aug 21 2017 10:04:31 GMT-0400 (EDT), Ultimate_Frisbee, 60
, , , , , , , , , , , , right, 1, 0.8999999999999773, , , , , , , , , , , , frizFarRight.jpg, The force is backhand., right, , , , , frizFarRight.jpg, The force is backhand., right, 1, 0, 16, 5, 86763169, Mon Aug 21 2017 10:04:31 GMT-0400 (EDT), Ultimate_Frisbee, 60
, , , , , , , , , , , , right, 1, 0.6159999999999854, , , , , , , , , , , , frizFarRight.jpg, The force is home., right, , , , , frizFarRight.jpg, The force is home., right, 1, 1, 17, 9, 86763169, Mon Aug 21 2017 10:04:31 GMT-0400 (EDT), Ultimate_Frisbee, 60
, , , , , , , , , , , , left, 1, 0.8349999999999795, , , , , , , , , , , , frizFarLeft.jpg, The force is home., left, , , , , frizFarLeft.jpg, The force is home., left, 1, 2, 18, 8, 86763169, Mon Aug 21 2017 10:04:31 GMT-0400 (EDT), Ultimate_Frisbee, 60
, , , , , , , , , , , , left, 1, 1.0830000000000268, , , , , , , , , , , , frizNearRight.jpg, The force is away., left, , , , , frizNearRight.jpg, The force is away., left, 1, 3, 19, 15, 86763169, Mon Aug 21 2017 10:04:31 GMT-0400 (EDT), Ultimate_Frisbee, 60
, , , , , , , , , , , , right, 1, 0.66700000000003, , , , , , , , , , , , frizNearLeft.jpg, The force is forehand., right, , , , , frizNearLeft.jpg, The force is forehand., right, 1, 4, 20, 2, 86763169, Mon Aug 21 2017 10:04:31 GMT-0400 (EDT), Ultimate_Frisbee, 60
, , , , , , , , , , , , left, 1, 1.2999999999999545, , , , , , , , , , , , frizFarLeft.jpg, The force is forehand., left, , , , , frizFarLeft.jpg, The force is forehand., left, 1, 5, 21, 0, 86763169, Mon Aug 21 2017 10:04:31 GMT-0400 (EDT), Ultimate_Frisbee, 60
, , , , , , , , , , , , left, 1, 1.0330000000000155, , , , , , , , , , , , frizNearLeft.jpg, The force is home., left, , , , , frizNearLeft.jpg, The force is home., left, 1, 6, 22, 10, 86763169, Mon Aug 21 2017 10:04:31 GMT-0400 (EDT), Ultimate_Frisbee, 60
, , , , , , , , , , , , left, 1, 1.1999999999999886, , , , , , , , , , , , frizNearRight.jpg, The force is backhand., left, , , , , frizNearRight.jpg, The force is backhand., left, 1, 7, 23, 7, 86763169, Mon Aug 21 2017 10:04:31 GMT-0400 (EDT), Ultimate_Frisbee, 60
, , , , , , , , , , , , right, 1, 0.7669999999999959, , , , , , , , , , , , frizNearRight.jpg, The force is forehand., right, , , , , frizNearRight.jpg, The force is forehand., right, 1, 8, 24, 3, 86763169, Mon Aug 21 2017 10:04:31 GMT-0400 (EDT), Ultimate_Frisbee, 60
, , , , , , , , , , , , right, 1, 0.8000000000000114, , , , , , , , , , , , frizNearRight.jpg, The force is home., right, , , , , frizNearRight.jpg, The force is home., right, 1, 9, 25, 11, 86763169, Mon Aug 21 2017 10:04:31 GMT-0400 (EDT), Ultimate_Frisbee, 60
, , , , , , , , , , , , right, 1, 1.1999999999999886, , , , , , , , , , , , frizNearLeft.jpg, The force is away., right, , , , , frizNearLeft.jpg, The force is away., right, 1, 10, 26, 14, 86763169, Mon Aug 21 2017 10:04:31 GMT-0400 (EDT), Ultimate_Frisbee, 60
, , , , , , , , , , , , right, 1, 1.0339999999999918, , , , , , , , , , , , frizFarLeft.jpg, The force is away., right, , , , , frizFarLeft.jpg, The force is away., right, 1, 11, 27, 12, 86763169, Mon Aug 21 2017 10:04:31 GMT-0400 (EDT), Ultimate_Frisbee, 60
, , , , , , , , , , , , left, 1, 1.0830000000000268, , , , , , , , , , , , frizFarRight.jpg, The force is away., left, , , , , frizFarRight.jpg, The force is away., left, 1, 12, 28, 13, 86763169, Mon Aug 21 2017 10:04:31 GMT-0400 (EDT), Ultimate_Frisbee, 60
, , , , , , , , , , , , left, 1, 1.2170000000000414, , , , , , , , , , , , frizNearLeft.jpg, The force is backhand., left, , , , , frizNearLeft.jpg, The force is backhand., left, 1, 13, 29, 6, 86763169, Mon Aug 21 2017 10:04:31 GMT-0400 (EDT), Ultimate_Frisbee, 60
, , , , , , , , , , , , right, 1, 2.065999999999974, , , , , , , , , , , , frizFarLeft.jpg, The force is backhand., right, , , , , frizFarLeft.jpg, The force is backhand., right, 1, 14, 30, 4, 86763169, Mon Aug 21 2017 10:04:31 GMT-0400 (EDT), Ultimate_Frisbee, 60
, , , , , , , , , , , , left, 1, 1.450999999999965, , , , , , , , , , , , frizFarRight.jpg, The force is forehand., left, , , , , frizFarRight.jpg, The force is forehand., left, 1, 15, 31, 1, 86763169, Mon Aug 21 2017 10:04:31 GMT-0400 (EDT), Ultimate_Frisbee, 60
, , , , , , , , , , , , right, 1, 0.9000000000000341, , , , , , , , , , , , frizFarRight.jpg, The force is backhand., right, , , , , frizFarRight.jpg, The force is backhand., right, 2, 0, 32, 5, 86763169, Mon Aug 21 2017 10:04:31 GMT-0400 (EDT), Ultimate_Frisbee, 60
, , , , , , , , , , , , right, 1, 0.8999999999999773, , , , , , , , , , , , frizNearLeft.jpg, The force is forehand., right, , , , , frizNearLeft.jpg, The force is forehand., right, 2, 1, 33, 2, 86763169, Mon Aug 21 2017 10:04:31 GMT-0400 (EDT), Ultimate_Frisbee, 60
, , , , , , , , , , , , left, 1, 0.66700000000003, , , , , , , , , , , , frizNearLeft.jpg, The force is home., left, , , , , frizNearLeft.jpg, The force is home., left, 2, 2, 34, 10, 86763169, Mon Aug 21 2017 10:04:31 GMT-0400 (EDT), Ultimate_Frisbee, 60
, , , , , , , , , , , , right, 1, 1.1169999999999618, , , , , , , , , , , , frizFarLeft.jpg, The force is backhand., right, , , , , frizFarLeft.jpg, The force is backhand., right, 2, 3, 35, 4, 86763169, Mon Aug 21 2017 10:04:31 GMT-0400 (EDT), Ultimate_Frisbee, 60
, , , , , , , , , , , , right, 1, 0.7659999999999627, , , , , , , , , , , , frizNearRight.jpg, The force is home., right, , , , , frizNearRight.jpg, The force is home., right, 2, 4, 36, 11, 86763169, Mon Aug 21 2017 10:04:31 GMT-0400 (EDT), Ultimate_Frisbee, 60
, , , , , , , , , , , , right, 1, 0.8010000000000446, , , , , , , , , , , , frizFarLeft.jpg, The force is away., right, , , , , frizFarLeft.jpg, The force is away., right, 2, 5, 37, 12, 86763169, Mon Aug 21 2017 10:04:31 GMT-0400 (EDT), Ultimate_Frisbee, 60
, , , , , , , , , , , , left, 1, 0.6829999999999927, , , , , , , , , , , , frizNearRight.jpg, The force is away., left, , , , , frizNearRight.jpg, The force is away., left, 2, 6, 38, 15, 86763169, Mon Aug 21 2017 10:04:31 GMT-0400 (EDT), Ultimate_Frisbee, 60
, , , , , , , , , , , , left, 1, 1.316000000000031, , , , , , , , , , , , frizNearLeft.jpg, The force is backhand., left, , , , , frizNearLeft.jpg, The force is backhand., left, 2, 7, 39, 6, 86763169, Mon Aug 21 2017 10:04:31 GMT-0400 (EDT), Ultimate_Frisbee, 60
, , , , , , , , , , , , left, 1, 0.9669999999999845, , , , , , , , , , , , frizNearRight.jpg, The force is backhand., left, , , , , frizNearRight.jpg, The force is backhand., left, 2, 8, 40, 7, 86763169, Mon Aug 21 2017 10:04:31 GMT-0400 (EDT), Ultimate_Frisbee, 60
, , , , , , , , , , , , right, 1, 0.9000000000000341, , , , , , , , , , , , frizFarRight.jpg, The force is home., right, , , , , frizFarRight.jpg, The force is home., right, 2, 9, 41, 9, 86763169, Mon Aug 21 2017 10:04:31 GMT-0400 (EDT), Ultimate_Frisbee, 60
, , , , , , , , , , , , left, 1, 1.099999999999966, , , , , , , , , , , , frizFarRight.jpg, The force is forehand., left, , , , , frizFarRight.jpg, The force is forehand., left, 2, 10, 42, 1, 86763169, Mon Aug 21 2017 10:04:31 GMT-0400 (EDT), Ultimate_Frisbee, 60
, , , , , , , , , , , , left, 1, 1.2829999999999586, , , , , , , , , , , , frizFarLeft.jpg, The force is forehand., left, , , , , frizFarLeft.jpg, The force is forehand., left, 2, 11, 43, 0, 86763169, Mon Aug 21 2017 10:04:31 GMT-0400 (EDT), Ultimate_Frisbee, 60
, , , , , , , , , , , , left, 1, 0.83299999999997, , , , , , , , , , , , frizFarLeft.jpg, The force is home., left, , , , , frizFarLeft.jpg, The force is home., left, 2, 12, 44, 8, 86763169, Mon Aug 21 2017 10:04:31 GMT-0400 (EDT), Ultimate_Frisbee, 60
, , , , , , , , , , , , right, 1, 1.2010000000000218, , , , , , , , , , , , frizNearLeft.jpg, The force is away., right, , , , , frizNearLeft.jpg, The force is away., right, 2, 13, 45, 14, 86763169, Mon Aug 21 2017 10:04:31 GMT-0400 (EDT), Ultimate_Frisbee, 60
, , , , , , , , , , , , right, 1, 0.8500000000000227, , , , , , , , , , , , frizNearRight.jpg, The force is forehand., right, , , , , frizNearRight.jpg, The force is forehand., right, 2, 14, 46, 3, 86763169, Mon Aug 21 2017 10:04:31 GMT-0400 (EDT), Ultimate_Frisbee, 60
, , , , , , , , , , , , left, 1, 0.7839999999999918, , , , , , , , , , , , frizFarRight.jpg, The force is away., left, , , , , frizFarRight.jpg, The force is away., left, 2, 15, 47, 13, 86763169, Mon Aug 21 2017 10:04:31 GMT-0400 (EDT), Ultimate_Frisbee, 60
, , , , , , , , , , , , left, 1, 0.6490000000000009, , , , , , , , , , , , frizFarLeft.jpg, The force is home., left, , , , , frizFarLeft.jpg, The force is home., left, 3, 0, 48, 8, 86763169, Mon Aug 21 2017 10:04:31 GMT-0400 (EDT), Ultimate_Frisbee, 60
, , , , , , , , , , , , right, 1, 1.002999999999986, , , , , , , , , , , , frizFarLeft.jpg, The force is backhand., right, , , , , frizFarLeft.jpg, The force is backhand., right, 3, 1, 49, 4, 86763169, Mon Aug 21 2017 10:04:31 GMT-0400 (EDT), Ultimate_Frisbee, 60
, , , , , , , , , , , , left, 1, 0.9830000000000041, , , , , , , , , , , , frizFarRight.jpg, The force is away., left, , , , , frizFarRight.jpg, The force is away., left, 3, 2, 50, 13, 86763169, Mon Aug 21 2017 10:04:31 GMT-0400 (EDT), Ultimate_Frisbee, 60
, , , , , , , , , , , , right, 1, 0.75, , , , , , , , , , , , frizNearRight.jpg, The force is forehand., right, , , , , frizNearRight.jpg, The force is forehand., right, 3, 3, 51, 3, 86763169, Mon Aug 21 2017 10:04:31 GMT-0400 (EDT), Ultimate_Frisbee, 60
, , , , , , , , , , , , left, 1, 1.016999999999996, , , , , , , , , , , , frizNearRight.jpg, The force is backhand., left, , , , , frizNearRight.jpg, The force is backhand., left, 3, 4, 52, 7, 86763169, Mon Aug 21 2017 10:04:31 GMT-0400 (EDT), Ultimate_Frisbee, 60
, , , , , , , , , , , , left, 1, 1.1170000000000186, , , , , , , , , , , , frizFarRight.jpg, The force is forehand., left, , , , , frizFarRight.jpg, The force is forehand., left, 3, 5, 53, 1, 86763169, Mon Aug 21 2017 10:04:31 GMT-0400 (EDT), Ultimate_Frisbee, 60
, , , , , , , , , , , , right, 1, 0.48399999999998045, , , , , , , , , , , , frizFarLeft.jpg, The force is away., right, , , , , frizFarLeft.jpg, The force is away., right, 3, 6, 54, 12, 86763169, Mon Aug 21 2017 10:04:31 GMT-0400 (EDT), Ultimate_Frisbee, 60
, , , , , , , , , , , , right, 1, 0.9839999999999804, , , , , , , , , , , , frizFarRight.jpg, The force is backhand., right, , , , , frizFarRight.jpg, The force is backhand., right, 3, 7, 55, 5, 86763169, Mon Aug 21 2017 10:04:31 GMT-0400 (EDT), Ultimate_Frisbee, 60
, , , , , , , , , , , , right, 1, 0.5830000000000268, , , , , , , , , , , , frizNearRight.jpg, The force is home., right, , , , , frizNearRight.jpg, The force is home., right, 3, 8, 56, 11, 86763169, Mon Aug 21 2017 10:04:31 GMT-0400 (EDT), Ultimate_Frisbee, 60
, , , , , , , , , , , , left, 1, 0.9270000000000209, , , , , , , , , , , , frizFarLeft.jpg, The force is forehand., left, , , , , frizFarLeft.jpg, The force is forehand., left, 3, 9, 57, 0, 86763169, Mon Aug 21 2017 10:04:31 GMT-0400 (EDT), Ultimate_Frisbee, 60
, , , , , , , , , , , , right, 1, 1.0170000000000528, , , , , , , , , , , , frizNearLeft.jpg, The force is forehand., right, , , , , frizNearLeft.jpg, The force is forehand., right, 3, 10, 58, 2, 86763169, Mon Aug 21 2017 10:04:31 GMT-0400 (EDT), Ultimate_Frisbee, 60
, , , , , , , , , , , , left, 1, 0.9990000000000236, , , , , , , , , , , , frizNearLeft.jpg, The force is home., left, , , , , frizNearLeft.jpg, The force is home., left, 3, 11, 59, 10, 86763169, Mon Aug 21 2017 10:04:31 GMT-0400 (EDT), Ultimate_Frisbee, 60
, , , , , , , , , , , , left, 1, 1.0489999999999782, , , , , , , , , , , , frizNearRight.jpg, The force is away., left, , , , , frizNearRight.jpg, The force is away., left, 3, 12, 60, 15, 86763169, Mon Aug 21 2017 10:04:31 GMT-0400 (EDT), Ultimate_Frisbee, 60
, , , , , , , , , , , , left, 1, 0.9990000000000236, , , , , , , , , , , , frizNearLeft.jpg, The force is backhand., left, , , , , frizNearLeft.jpg, The force is backhand., left, 3, 13, 61, 6, 86763169, Mon Aug 21 2017 10:04:31 GMT-0400 (EDT), Ultimate_Frisbee, 60
, , , , , , , , , , , , right, 1, 1.1000000000000227, , , , , , , , , , , , frizFarRight.jpg, The force is home., right, , , , , frizFarRight.jpg, The force is home., right, 3, 14, 62, 9, 86763169, Mon Aug 21 2017 10:04:31 GMT-0400 (EDT), Ultimate_Frisbee, 60
, , , , , , , , , , , , right, 1, 0.950999999999965, , , , , , , , , , , , frizNearLeft.jpg, The force is away., right, , , , , frizNearLeft.jpg, The force is away., right, 3, 15, 63, 14, 86763169, Mon Aug 21 2017 10:04:31 GMT-0400 (EDT), Ultimate_Frisbee, 60
