Continue.keys, Continue.rt, instructions_response.keys, instructions_response.rt, repeat_response.keys, repeat_response.rt, key_resp_5.keys, key_resp_5.rt, key_resp_2.keys, key_resp_2.rt, key_resp_4.keys, key_resp_4.rt, Trials_response.keys, Trials_response.corr, Trials_response.rt, Block_Continue.keys, Block_Continue.rt, Image, instructions_1_loop.thisRepN, instructions_1_loop.thisTrialN, instructions_1_loop.thisN, instructions_1_loop.thisIndex, instructions_2_repeat.thisRepN, instructions_2_repeat.thisTrialN, instructions_2_repeat.thisN, instructions_2_repeat.thisIndex, stim, prompt, answer, trials_2.thisRepN, trials_2.thisTrialN, trials_2.thisN, trials_2.thisIndex, stim, prompt, answer, trials.thisRepN, trials.thisTrialN, trials.thisN, trials.thisIndex, participant, date, expName, frameRate
space, 1.6219999999999999, space, 5.180999999999997, , , , , , , , , , , , , , Slide1.JPG, 0, 0, 0, 0, , , , , , , , , , , , , , , , , , , 98888826, Thu Sep 28 2017 17:36:49 GMT-0400 (Eastern Daylight Time), Ultimate_Frisbee, 60
, , space, 17.716, , , , , , , , , , , , , , Slide2.JPG, 0, 1, 1, 1, , , , , , , , , , , , , , , , , , , 98888826, Thu Sep 28 2017 17:36:49 GMT-0400 (Eastern Daylight Time), Ultimate_Frisbee, 60
, , space, 10.210999999999999, , , , , , , , , , , , , , Slide3.JPG, 0, 2, 2, 2, , , , , , , , , , , , , , , , , , , 98888826, Thu Sep 28 2017 17:36:49 GMT-0400 (Eastern Daylight Time), Ultimate_Frisbee, 60
, , space, 3.625, , , , , , , , , , , , , , Slide4.JPG, 0, 3, 3, 3, , , , , , , , , , , , , , , , , , , 98888826, Thu Sep 28 2017 17:36:49 GMT-0400 (Eastern Daylight Time), Ultimate_Frisbee, 60
, , space, 17.813000000000002, , , , , , , , , , , , , , Slide5.JPG, 0, 4, 4, 4, , , , , , , , , , , , , , , , , , , 98888826, Thu Sep 28 2017 17:36:49 GMT-0400 (Eastern Daylight Time), Ultimate_Frisbee, 60
, , space, 11.700999999999993, , , , , , , , , , , , , , Slide6.JPG, 0, 5, 5, 5, , , , , , , , , , , , , , , , , , , 98888826, Thu Sep 28 2017 17:36:49 GMT-0400 (Eastern Daylight Time), Ultimate_Frisbee, 60
, , space, 13.533999999999992, , , , , , , , , , , , , , Slide7.JPG, 0, 6, 6, 6, , , , , , , , , , , , , , , , , , , 98888826, Thu Sep 28 2017 17:36:49 GMT-0400 (Eastern Daylight Time), Ultimate_Frisbee, 60
, , space, 7.103000000000009, , , , , , , , , , , , , , Slide8.JPG, 0, 7, 7, 7, , , , , , , , , , , , , , , , , , , 98888826, Thu Sep 28 2017 17:36:49 GMT-0400 (Eastern Daylight Time), Ultimate_Frisbee, 60
, , space, 8.588000000000008, , , , , , , , , , , , , , Slide9.JPG, 0, 8, 8, 8, , , , , , , , , , , , , , , , , , , 98888826, Thu Sep 28 2017 17:36:49 GMT-0400 (Eastern Daylight Time), Ultimate_Frisbee, 60
, , space, 10.377999999999986, , , , , , , , , , , , , , Slide10.JPG, 0, 9, 9, 9, , , , , , , , , , , , , , , , , , , 98888826, Thu Sep 28 2017 17:36:49 GMT-0400 (Eastern Daylight Time), Ultimate_Frisbee, 60
, , space, 6.899999999999977, , , , , , , , , , , , , , Slide11.JPG, 0, 10, 10, 10, , , , , , , , , , , , , , , , , , , 98888826, Thu Sep 28 2017 17:36:49 GMT-0400 (Eastern Daylight Time), Ultimate_Frisbee, 60
, , space, 9.591999999999985, , , , , , , , , , , , , , Slide12.JPG, 0, 11, 11, 11, , , , , , , , , , , , , , , , , , , 98888826, Thu Sep 28 2017 17:36:49 GMT-0400 (Eastern Daylight Time), Ultimate_Frisbee, 60
, , space, 4.1270000000000095, , , , , , , , , , , , , , Slide13.JPG, 0, 12, 12, 12, , , , , , , , , , , , , , , , , , , 98888826, Thu Sep 28 2017 17:36:49 GMT-0400 (Eastern Daylight Time), Ultimate_Frisbee, 60
, , space, 3.9950000000000045, , , , , , , , , , , , , , Slide14.JPG, 0, 13, 13, 13, , , , , , , , , , , , , , , , , , , 98888826, Thu Sep 28 2017 17:36:49 GMT-0400 (Eastern Daylight Time), Ultimate_Frisbee, 60
, , , , 0, 5.964999999999975, space, 8.50399999999999, left, 2.65300000000002, , , , , , , , , , , , , , , , , frizFarLeft.jpg, The force is forehand., left, 0, 0, 0, 0, frizFarLeft.jpg, The force is forehand., left, , , , , 98888826, Thu Sep 28 2017 17:36:49 GMT-0400 (Eastern Daylight Time), Ultimate_Frisbee, 60
, , , , , , , , right, 2.2369999999999948, , , , , , , , , , , , , , , , , frizNearLeft.jpg, The force is away., right, 0, 1, 1, 1, frizNearLeft.jpg, The force is away., right, , , , , 98888826, Thu Sep 28 2017 17:36:49 GMT-0400 (Eastern Daylight Time), Ultimate_Frisbee, 60
, , , , , , , , right, 1.7370000000000232, , , , , , , , , , , , , , , , , frizFarRight.jpg, The force is backhand., right, 0, 2, 2, 2, frizFarRight.jpg, The force is backhand., right, , , , , 98888826, Thu Sep 28 2017 17:36:49 GMT-0400 (Eastern Daylight Time), Ultimate_Frisbee, 60
, , , , , , , , right, 1.4499999999999886, , , , , , , , , , , , , , , , , frizNearRight.jpg, The force is home., right, 0, 3, 3, 3, frizNearRight.jpg, The force is home., right, , , , , 98888826, Thu Sep 28 2017 17:36:49 GMT-0400 (Eastern Daylight Time), Ultimate_Frisbee, 60
, , , , , , , , left, 1.5209999999999866, , , , , , , , , , , , , , , , , frizNearLeft.jpg, The force is backhand., left, 0, 4, 4, 4, frizNearLeft.jpg, The force is backhand., left, , , , , 98888826, Thu Sep 28 2017 17:36:49 GMT-0400 (Eastern Daylight Time), Ultimate_Frisbee, 60
, , , , , , , , right, 1.468999999999994, , , , , , , , , , , , , , , , , frizNearRight.jpg, The force is home., right, 0, 5, 5, 5, frizNearRight.jpg, The force is home., right, , , , , 98888826, Thu Sep 28 2017 17:36:49 GMT-0400 (Eastern Daylight Time), Ultimate_Frisbee, 60
, , , , , , , , right, 1.2199999999999989, , , , , , , , , , , , , , , , , frizNearLeft.jpg, The force is away., right, 0, 6, 6, 6, frizNearLeft.jpg, The force is away., right, , , , , 98888826, Thu Sep 28 2017 17:36:49 GMT-0400 (Eastern Daylight Time), Ultimate_Frisbee, 60
, , , , , , , , left, 1.703000000000003, , , , , , , , , , , , , , , , , frizFarLeft.jpg, The force is forehand., left, 0, 7, 7, 7, frizFarLeft.jpg, The force is forehand., left, , , , , 98888826, Thu Sep 28 2017 17:36:49 GMT-0400 (Eastern Daylight Time), Ultimate_Frisbee, 60
, , , , , , , , , , space, 21.460000000000008, left, 1, 1.3199999999999932, , , , , , , , , , , , frizNearRight.jpg, The force is backhand., left, , , , , frizNearRight.jpg, The force is backhand., left, 0, 0, 0, 7, 98888826, Thu Sep 28 2017 17:36:49 GMT-0400 (Eastern Daylight Time), Ultimate_Frisbee, 60
, , , , , , , , , , , , left, 1, 1.103999999999985, , , , , , , , , , , , frizFarLeft.jpg, The force is home., left, , , , , frizFarLeft.jpg, The force is home., left, 0, 1, 1, 8, 98888826, Thu Sep 28 2017 17:36:49 GMT-0400 (Eastern Daylight Time), Ultimate_Frisbee, 60
, , , , , , , , , , , , right, 1, 1.6019999999999754, , , , , , , , , , , , frizNearLeft.jpg, The force is forehand., right, , , , , frizNearLeft.jpg, The force is forehand., right, 0, 2, 2, 2, 98888826, Thu Sep 28 2017 17:36:49 GMT-0400 (Eastern Daylight Time), Ultimate_Frisbee, 60
, , , , , , , , , , , , left, 1, 1.183999999999969, , , , , , , , , , , , frizFarLeft.jpg, The force is forehand., left, , , , , frizFarLeft.jpg, The force is forehand., left, 0, 3, 3, 0, 98888826, Thu Sep 28 2017 17:36:49 GMT-0400 (Eastern Daylight Time), Ultimate_Frisbee, 60
, , , , , , , , , , , , right, 1, 1.2030000000000314, , , , , , , , , , , , frizNearRight.jpg, The force is forehand., right, , , , , frizNearRight.jpg, The force is forehand., right, 0, 4, 4, 3, 98888826, Thu Sep 28 2017 17:36:49 GMT-0400 (Eastern Daylight Time), Ultimate_Frisbee, 60
, , , , , , , , , , , , left, 1, 1.122000000000014, , , , , , , , , , , , frizNearLeft.jpg, The force is home., left, , , , , frizNearLeft.jpg, The force is home., left, 0, 5, 5, 10, 98888826, Thu Sep 28 2017 17:36:49 GMT-0400 (Eastern Daylight Time), Ultimate_Frisbee, 60
, , , , , , , , , , , , right, 1, 1.5740000000000123, , , , , , , , , , , , frizFarRight.jpg, The force is backhand., right, , , , , frizFarRight.jpg, The force is backhand., right, 0, 6, 6, 5, 98888826, Thu Sep 28 2017 17:36:49 GMT-0400 (Eastern Daylight Time), Ultimate_Frisbee, 60
, , , , , , , , , , , , left, 1, 1.336999999999989, , , , , , , , , , , , frizNearRight.jpg, The force is away., left, , , , , frizNearRight.jpg, The force is away., left, 0, 7, 7, 15, 98888826, Thu Sep 28 2017 17:36:49 GMT-0400 (Eastern Daylight Time), Ultimate_Frisbee, 60
, , , , , , , , , , , , right, 1, 1.1370000000000005, , , , , , , , , , , , frizNearLeft.jpg, The force is away., right, , , , , frizNearLeft.jpg, The force is away., right, 0, 8, 8, 14, 98888826, Thu Sep 28 2017 17:36:49 GMT-0400 (Eastern Daylight Time), Ultimate_Frisbee, 60
, , , , , , , , , , , , left, 1, 1.4370000000000118, , , , , , , , , , , , frizNearLeft.jpg, The force is backhand., left, , , , , frizNearLeft.jpg, The force is backhand., left, 0, 9, 9, 6, 98888826, Thu Sep 28 2017 17:36:49 GMT-0400 (Eastern Daylight Time), Ultimate_Frisbee, 60
, , , , , , , , , , , , right, 1, 0.9189999999999827, , , , , , , , , , , , frizNearRight.jpg, The force is home., right, , , , , frizNearRight.jpg, The force is home., right, 0, 10, 10, 11, 98888826, Thu Sep 28 2017 17:36:49 GMT-0400 (Eastern Daylight Time), Ultimate_Frisbee, 60
, , , , , , , , , , , , left, 1, 0.9189999999999827, , , , , , , , , , , , frizFarRight.jpg, The force is away., left, , , , , frizFarRight.jpg, The force is away., left, 0, 11, 11, 13, 98888826, Thu Sep 28 2017 17:36:49 GMT-0400 (Eastern Daylight Time), Ultimate_Frisbee, 60
, , , , , , , , , , , , right, 1, 1.086999999999989, , , , , , , , , , , , frizFarRight.jpg, The force is home., right, , , , , frizFarRight.jpg, The force is home., right, 0, 12, 12, 9, 98888826, Thu Sep 28 2017 17:36:49 GMT-0400 (Eastern Daylight Time), Ultimate_Frisbee, 60
, , , , , , , , , , , , left, 1, 1.3870000000000005, , , , , , , , , , , , frizFarRight.jpg, The force is forehand., left, , , , , frizFarRight.jpg, The force is forehand., left, 0, 13, 13, 1, 98888826, Thu Sep 28 2017 17:36:49 GMT-0400 (Eastern Daylight Time), Ultimate_Frisbee, 60
, , , , , , , , , , , , right, 1, 1.1329999999999814, , , , , , , , , , , , frizFarLeft.jpg, The force is backhand., right, , , , , frizFarLeft.jpg, The force is backhand., right, 0, 14, 14, 4, 98888826, Thu Sep 28 2017 17:36:49 GMT-0400 (Eastern Daylight Time), Ultimate_Frisbee, 60
, , , , , , , , , , , , right, 1, 0.9219999999999686, , , , , , , , , , , , frizFarLeft.jpg, The force is away., right, , , , , frizFarLeft.jpg, The force is away., right, 0, 15, 15, 12, 98888826, Thu Sep 28 2017 17:36:49 GMT-0400 (Eastern Daylight Time), Ultimate_Frisbee, 60
, , , , , , , , , , , , right, 1, 1.3029999999999973, , , , , , , , , , , , frizFarLeft.jpg, The force is backhand., right, , , , , frizFarLeft.jpg, The force is backhand., right, 1, 0, 16, 4, 98888826, Thu Sep 28 2017 17:36:49 GMT-0400 (Eastern Daylight Time), Ultimate_Frisbee, 60
, , , , , , , , , , , , left, 1, 0.8360000000000127, , , , , , , , , , , , frizFarLeft.jpg, The force is home., left, , , , , frizFarLeft.jpg, The force is home., left, 1, 1, 17, 8, 98888826, Thu Sep 28 2017 17:36:49 GMT-0400 (Eastern Daylight Time), Ultimate_Frisbee, 60
, , , , , , , , , , , , right, 1, 0.8360000000000127, , , , , , , , , , , , frizNearLeft.jpg, The force is forehand., right, , , , , frizNearLeft.jpg, The force is forehand., right, 1, 2, 18, 2, 98888826, Thu Sep 28 2017 17:36:49 GMT-0400 (Eastern Daylight Time), Ultimate_Frisbee, 60
, , , , , , , , , , , , right, 1, 0.8159999999999741, , , , , , , , , , , , frizNearRight.jpg, The force is forehand., right, , , , , frizNearRight.jpg, The force is forehand., right, 1, 3, 19, 3, 98888826, Thu Sep 28 2017 17:36:49 GMT-0400 (Eastern Daylight Time), Ultimate_Frisbee, 60
, , , , , , , , , , , , left, 1, 0.9359999999999786, , , , , , , , , , , , frizNearLeft.jpg, The force is home., left, , , , , frizNearLeft.jpg, The force is home., left, 1, 4, 20, 10, 98888826, Thu Sep 28 2017 17:36:49 GMT-0400 (Eastern Daylight Time), Ultimate_Frisbee, 60
, , , , , , , , , , , , right, 1, 1.287999999999954, , , , , , , , , , , , frizFarLeft.jpg, The force is away., right, , , , , frizFarLeft.jpg, The force is away., right, 1, 5, 21, 12, 98888826, Thu Sep 28 2017 17:36:49 GMT-0400 (Eastern Daylight Time), Ultimate_Frisbee, 60
, , , , , , , , , , , , left, 1, 1.219000000000051, , , , , , , , , , , , frizNearRight.jpg, The force is backhand., left, , , , , frizNearRight.jpg, The force is backhand., left, 1, 6, 22, 7, 98888826, Thu Sep 28 2017 17:36:49 GMT-0400 (Eastern Daylight Time), Ultimate_Frisbee, 60
, , , , , , , , , , , , right, 1, 0.9209999999999923, , , , , , , , , , , , frizNearRight.jpg, The force is home., right, , , , , frizNearRight.jpg, The force is home., right, 1, 7, 23, 11, 98888826, Thu Sep 28 2017 17:36:49 GMT-0400 (Eastern Daylight Time), Ultimate_Frisbee, 60
, , , , , , , , , , , , right, 1, 1.3870000000000005, , , , , , , , , , , , frizFarRight.jpg, The force is backhand., right, , , , , frizFarRight.jpg, The force is backhand., right, 1, 8, 24, 5, 98888826, Thu Sep 28 2017 17:36:49 GMT-0400 (Eastern Daylight Time), Ultimate_Frisbee, 60
, , , , , , , , , , , , left, 1, 1.0409999999999968, , , , , , , , , , , , frizFarRight.jpg, The force is away., left, , , , , frizFarRight.jpg, The force is away., left, 1, 9, 25, 13, 98888826, Thu Sep 28 2017 17:36:49 GMT-0400 (Eastern Daylight Time), Ultimate_Frisbee, 60
, , , , , , , , , , , , left, 1, 0.8880000000000337, , , , , , , , , , , , frizNearLeft.jpg, The force is backhand., left, , , , , frizNearLeft.jpg, The force is backhand., left, 1, 10, 26, 6, 98888826, Thu Sep 28 2017 17:36:49 GMT-0400 (Eastern Daylight Time), Ultimate_Frisbee, 60
, , , , , , , , , , , , right, 1, 0.9530000000000314, , , , , , , , , , , , frizNearLeft.jpg, The force is away., right, , , , , frizNearLeft.jpg, The force is away., right, 1, 11, 27, 14, 98888826, Thu Sep 28 2017 17:36:49 GMT-0400 (Eastern Daylight Time), Ultimate_Frisbee, 60
, , , , , , , , , , , , left, 1, 0.9560000000000173, , , , , , , , , , , , frizNearRight.jpg, The force is away., left, , , , , frizNearRight.jpg, The force is away., left, 1, 12, 28, 15, 98888826, Thu Sep 28 2017 17:36:49 GMT-0400 (Eastern Daylight Time), Ultimate_Frisbee, 60
, , , , , , , , , , , , right, 1, 0.7019999999999982, , , , , , , , , , , , frizFarRight.jpg, The force is home., right, , , , , frizFarRight.jpg, The force is home., right, 1, 13, 29, 9, 98888826, Thu Sep 28 2017 17:36:49 GMT-0400 (Eastern Daylight Time), Ultimate_Frisbee, 60
, , , , , , , , , , , , left, 1, 1.3360000000000127, , , , , , , , , , , , frizFarRight.jpg, The force is forehand., left, , , , , frizFarRight.jpg, The force is forehand., left, 1, 14, 30, 1, 98888826, Thu Sep 28 2017 17:36:49 GMT-0400 (Eastern Daylight Time), Ultimate_Frisbee, 60
, , , , , , , , , , , , left, 1, 1.3199999999999932, , , , , , , , , , , , frizFarLeft.jpg, The force is forehand., left, , , , , frizFarLeft.jpg, The force is forehand., left, 1, 15, 31, 0, 98888826, Thu Sep 28 2017 17:36:49 GMT-0400 (Eastern Daylight Time), Ultimate_Frisbee, 60
, , , , , , , , , , , , left, 1, 1.1550000000000296, , , , , , , , , , , , frizNearRight.jpg, The force is away., left, , , , , frizNearRight.jpg, The force is away., left, 2, 0, 32, 15, 98888826, Thu Sep 28 2017 17:36:49 GMT-0400 (Eastern Daylight Time), Ultimate_Frisbee, 60
, , , , , , , , , , , , right, 1, 1.002999999999986, , , , , , , , , , , , frizNearRight.jpg, The force is home., right, , , , , frizNearRight.jpg, The force is home., right, 2, 1, 33, 11, 98888826, Thu Sep 28 2017 17:36:49 GMT-0400 (Eastern Daylight Time), Ultimate_Frisbee, 60
, , , , , , , , , , , , left, 1, 1.7030000000000314, , , , , , , , , , , , frizFarRight.jpg, The force is forehand., left, , , , , frizFarRight.jpg, The force is forehand., left, 2, 2, 34, 1, 98888826, Thu Sep 28 2017 17:36:49 GMT-0400 (Eastern Daylight Time), Ultimate_Frisbee, 60
, , , , , , , , , , , , left, 1, 0.9209999999999923, , , , , , , , , , , , frizFarLeft.jpg, The force is forehand., left, , , , , frizFarLeft.jpg, The force is forehand., left, 2, 3, 35, 0, 98888826, Thu Sep 28 2017 17:36:49 GMT-0400 (Eastern Daylight Time), Ultimate_Frisbee, 60
, , , , , , , , , , , , right, 1, 0.8019999999999641, , , , , , , , , , , , frizNearLeft.jpg, The force is away., right, , , , , frizNearLeft.jpg, The force is away., right, 2, 4, 36, 14, 98888826, Thu Sep 28 2017 17:36:49 GMT-0400 (Eastern Daylight Time), Ultimate_Frisbee, 60
, , , , , , , , , , , , left, 1, 0.8359999999999559, , , , , , , , , , , , frizFarRight.jpg, The force is away., left, , , , , frizFarRight.jpg, The force is away., left, 2, 5, 37, 13, 98888826, Thu Sep 28 2017 17:36:49 GMT-0400 (Eastern Daylight Time), Ultimate_Frisbee, 60
, , , , , , , , , , , , left, 1, 0.8500000000000227, , , , , , , , , , , , frizFarLeft.jpg, The force is home., left, , , , , frizFarLeft.jpg, The force is home., left, 2, 6, 38, 8, 98888826, Thu Sep 28 2017 17:36:49 GMT-0400 (Eastern Daylight Time), Ultimate_Frisbee, 60
, , , , , , , , , , , , right, 1, 0.7679999999999723, , , , , , , , , , , , frizFarLeft.jpg, The force is away., right, , , , , frizFarLeft.jpg, The force is away., right, 2, 7, 39, 12, 98888826, Thu Sep 28 2017 17:36:49 GMT-0400 (Eastern Daylight Time), Ultimate_Frisbee, 60
, , , , , , , , , , , , right, 1, 1.1850000000000023, , , , , , , , , , , , frizFarRight.jpg, The force is backhand., right, , , , , frizFarRight.jpg, The force is backhand., right, 2, 8, 40, 5, 98888826, Thu Sep 28 2017 17:36:49 GMT-0400 (Eastern Daylight Time), Ultimate_Frisbee, 60
, , , , , , , , , , , , right, 1, 0.9540000000000077, , , , , , , , , , , , frizFarRight.jpg, The force is home., right, , , , , frizFarRight.jpg, The force is home., right, 2, 9, 41, 9, 98888826, Thu Sep 28 2017 17:36:49 GMT-0400 (Eastern Daylight Time), Ultimate_Frisbee, 60
, , , , , , , , , , , , left, 1, 1.3330000000000268, , , , , , , , , , , , frizNearLeft.jpg, The force is backhand., left, , , , , frizNearLeft.jpg, The force is backhand., left, 2, 10, 42, 6, 98888826, Thu Sep 28 2017 17:36:49 GMT-0400 (Eastern Daylight Time), Ultimate_Frisbee, 60
, , , , , , , , , , , , right, 1, 0.7680000000000291, , , , , , , , , , , , frizNearRight.jpg, The force is forehand., right, , , , , frizNearRight.jpg, The force is forehand., right, 2, 11, 43, 3, 98888826, Thu Sep 28 2017 17:36:49 GMT-0400 (Eastern Daylight Time), Ultimate_Frisbee, 60
, , , , , , , , , , , , right, 1, 0.8659999999999854, , , , , , , , , , , , frizNearLeft.jpg, The force is forehand., right, , , , , frizNearLeft.jpg, The force is forehand., right, 2, 12, 44, 2, 98888826, Thu Sep 28 2017 17:36:49 GMT-0400 (Eastern Daylight Time), Ultimate_Frisbee, 60
, , , , , , , , , , , , left, 1, 0.9220000000000255, , , , , , , , , , , , frizNearLeft.jpg, The force is home., left, , , , , frizNearLeft.jpg, The force is home., left, 2, 13, 45, 10, 98888826, Thu Sep 28 2017 17:36:49 GMT-0400 (Eastern Daylight Time), Ultimate_Frisbee, 60
, , , , , , , , , , , , left, 1, 1.254000000000019, , , , , , , , , , , , frizNearRight.jpg, The force is backhand., left, , , , , frizNearRight.jpg, The force is backhand., left, 2, 14, 46, 7, 98888826, Thu Sep 28 2017 17:36:49 GMT-0400 (Eastern Daylight Time), Ultimate_Frisbee, 60
, , , , , , , , , , , , right, 1, 1.0020000000000095, , , , , , , , , , , , frizFarLeft.jpg, The force is backhand., right, , , , , frizFarLeft.jpg, The force is backhand., right, 2, 15, 47, 4, 98888826, Thu Sep 28 2017 17:36:49 GMT-0400 (Eastern Daylight Time), Ultimate_Frisbee, 60
, , , , , , , , , , , , left, 1, 1.406000000000006, , , , , , , , , , , , frizFarRight.jpg, The force is away., left, , , , , frizFarRight.jpg, The force is away., left, 3, 0, 48, 13, 98888826, Thu Sep 28 2017 17:36:49 GMT-0400 (Eastern Daylight Time), Ultimate_Frisbee, 60
, , , , , , , , , , , , left, 1, 1.002999999999986, , , , , , , , , , , , frizNearRight.jpg, The force is away., left, , , , , frizNearRight.jpg, The force is away., left, 3, 1, 49, 15, 98888826, Thu Sep 28 2017 17:36:49 GMT-0400 (Eastern Daylight Time), Ultimate_Frisbee, 60
, , , , , , , , , , , , right, 1, 0.6490000000000009, , , , , , , , , , , , frizNearRight.jpg, The force is home., right, , , , , frizNearRight.jpg, The force is home., right, 3, 2, 50, 11, 98888826, Thu Sep 28 2017 17:36:49 GMT-0400 (Eastern Daylight Time), Ultimate_Frisbee, 60
, , , , , , , , , , , , left, 1, 0.8040000000000305, , , , , , , , , , , , frizNearLeft.jpg, The force is home., left, , , , , frizNearLeft.jpg, The force is home., left, 3, 3, 51, 10, 98888826, Thu Sep 28 2017 17:36:49 GMT-0400 (Eastern Daylight Time), Ultimate_Frisbee, 60
, , , , , , , , , , , , right, 1, 1.3859999999999673, , , , , , , , , , , , frizFarRight.jpg, The force is backhand., right, , , , , frizFarRight.jpg, The force is backhand., right, 3, 4, 52, 5, 98888826, Thu Sep 28 2017 17:36:49 GMT-0400 (Eastern Daylight Time), Ultimate_Frisbee, 60
, , , , , , , , , , , , left, 1, 0.9019999999999868, , , , , , , , , , , , frizNearRight.jpg, The force is backhand., left, , , , , frizNearRight.jpg, The force is backhand., left, 3, 5, 53, 7, 98888826, Thu Sep 28 2017 17:36:49 GMT-0400 (Eastern Daylight Time), Ultimate_Frisbee, 60
, , , , , , , , , , , , right, 1, 0.7680000000000291, , , , , , , , , , , , frizFarRight.jpg, The force is home., right, , , , , frizFarRight.jpg, The force is home., right, 3, 6, 54, 9, 98888826, Thu Sep 28 2017 17:36:49 GMT-0400 (Eastern Daylight Time), Ultimate_Frisbee, 60
, , , , , , , , , , , , left, 1, 1.1860000000000355, , , , , , , , , , , , frizNearLeft.jpg, The force is backhand., left, , , , , frizNearLeft.jpg, The force is backhand., left, 3, 7, 55, 6, 98888826, Thu Sep 28 2017 17:36:49 GMT-0400 (Eastern Daylight Time), Ultimate_Frisbee, 60
, , , , , , , , , , , , right, 1, 0.8360000000000127, , , , , , , , , , , , frizFarLeft.jpg, The force is away., right, , , , , frizFarLeft.jpg, The force is away., right, 3, 8, 56, 12, 98888826, Thu Sep 28 2017 17:36:49 GMT-0400 (Eastern Daylight Time), Ultimate_Frisbee, 60
, , , , , , , , , , , , left, 1, 1.1380000000000337, , , , , , , , , , , , frizFarLeft.jpg, The force is forehand., left, , , , , frizFarLeft.jpg, The force is forehand., left, 3, 9, 57, 0, 98888826, Thu Sep 28 2017 17:36:49 GMT-0400 (Eastern Daylight Time), Ultimate_Frisbee, 60
, , , , , , , , , , , , right, 1, 0.6529999999999632, , , , , , , , , , , , frizNearLeft.jpg, The force is away., right, , , , , frizNearLeft.jpg, The force is away., right, 3, 10, 58, 14, 98888826, Thu Sep 28 2017 17:36:49 GMT-0400 (Eastern Daylight Time), Ultimate_Frisbee, 60
, , , , , , , , , , , , right, 1, 0.9500000000000455, , , , , , , , , , , , frizNearRight.jpg, The force is forehand., right, , , , , frizNearRight.jpg, The force is forehand., right, 3, 11, 59, 3, 98888826, Thu Sep 28 2017 17:36:49 GMT-0400 (Eastern Daylight Time), Ultimate_Frisbee, 60
, , , , , , , , , , , , left, 1, 0.9499999999999886, , , , , , , , , , , , frizFarLeft.jpg, The force is home., left, , , , , frizFarLeft.jpg, The force is home., left, 3, 12, 60, 8, 98888826, Thu Sep 28 2017 17:36:49 GMT-0400 (Eastern Daylight Time), Ultimate_Frisbee, 60
, , , , , , , , , , , , left, 1, 1.2220000000000368, , , , , , , , , , , , frizFarRight.jpg, The force is forehand., left, , , , , frizFarRight.jpg, The force is forehand., left, 3, 13, 61, 1, 98888826, Thu Sep 28 2017 17:36:49 GMT-0400 (Eastern Daylight Time), Ultimate_Frisbee, 60
, , , , , , , , , , , , right, 1, 0.8029999999999973, , , , , , , , , , , , frizFarLeft.jpg, The force is backhand., right, , , , , frizFarLeft.jpg, The force is backhand., right, 3, 14, 62, 4, 98888826, Thu Sep 28 2017 17:36:49 GMT-0400 (Eastern Daylight Time), Ultimate_Frisbee, 60
, , , , , , , , , , , , right, 1, 0.7680000000000291, , , , , , , , , , , , frizNearLeft.jpg, The force is forehand., right, , , , , frizNearLeft.jpg, The force is forehand., right, 3, 15, 63, 2, 98888826, Thu Sep 28 2017 17:36:49 GMT-0400 (Eastern Daylight Time), Ultimate_Frisbee, 60
