Continue.keys, Continue.rt, instructions_response.keys, instructions_response.rt, repeat_response.keys, repeat_response.rt, key_resp_5.keys, key_resp_5.rt, key_resp_2.keys, key_resp_2.rt, key_resp_4.keys, key_resp_4.rt, Trials_response.keys, Trials_response.corr, Trials_response.rt, Block_Continue.keys, Block_Continue.rt, Image, instructions_1_loop.thisRepN, instructions_1_loop.thisTrialN, instructions_1_loop.thisN, instructions_1_loop.thisIndex, instructions_2_repeat.thisRepN, instructions_2_repeat.thisTrialN, instructions_2_repeat.thisN, instructions_2_repeat.thisIndex, stim, prompt, answer, trials_2.thisRepN, trials_2.thisTrialN, trials_2.thisN, trials_2.thisIndex, stim, prompt, answer, trials.thisRepN, trials.thisTrialN, trials.thisN, trials.thisIndex, participant, date, expName, frameRate
space, 1.9719999999999995, space, 0.9350000000000005, , , , , , , , , , , , , , Slide1.JPG, 0, 0, 0, 0, , , , , , , , , , , , , , , , , , , , Mon Aug 28 2017 17:29:14 GMT-0400 (EDT), Ultimate_Frisbee, 60
, , space, 6.701000000000002, , , , , , , , , , , , , , Slide2.JPG, 0, 1, 1, 1, , , , , , , , , , , , , , , , , , , , Mon Aug 28 2017 17:29:14 GMT-0400 (EDT), Ultimate_Frisbee, 60
, , space, 2.6409999999999982, , , , , , , , , , , , , , Slide3.JPG, 0, 2, 2, 2, , , , , , , , , , , , , , , , , , , , Mon Aug 28 2017 17:29:14 GMT-0400 (EDT), Ultimate_Frisbee, 60
, , space, 0.5820000000000007, , , , , , , , , , , , , , Slide4.JPG, 0, 3, 3, 3, , , , , , , , , , , , , , , , , , , , Mon Aug 28 2017 17:29:14 GMT-0400 (EDT), Ultimate_Frisbee, 60
, , space, 9.982, , , , , , , , , , , , , , Slide5.JPG, 0, 4, 4, 4, , , , , , , , , , , , , , , , , , , , Mon Aug 28 2017 17:29:14 GMT-0400 (EDT), Ultimate_Frisbee, 60
, , space, 1.6550000000000011, , , , , , , , , , , , , , Slide6.JPG, 0, 5, 5, 5, , , , , , , , , , , , , , , , , , , , Mon Aug 28 2017 17:29:14 GMT-0400 (EDT), Ultimate_Frisbee, 60
, , space, 1.7379999999999995, , , , , , , , , , , , , , Slide7.JPG, 0, 6, 6, 6, , , , , , , , , , , , , , , , , , , , Mon Aug 28 2017 17:29:14 GMT-0400 (EDT), Ultimate_Frisbee, 60
, , space, 1.5039999999999978, , , , , , , , , , , , , , Slide8.JPG, 0, 7, 7, 7, , , , , , , , , , , , , , , , , , , , Mon Aug 28 2017 17:29:14 GMT-0400 (EDT), Ultimate_Frisbee, 60
, , space, 3.9279999999999973, , , , , , , , , , , , , , Slide9.JPG, 0, 8, 8, 8, , , , , , , , , , , , , , , , , , , , Mon Aug 28 2017 17:29:14 GMT-0400 (EDT), Ultimate_Frisbee, 60
, , space, 2.4909999999999997, , , , , , , , , , , , , , Slide10.JPG, 0, 9, 9, 9, , , , , , , , , , , , , , , , , , , , Mon Aug 28 2017 17:29:14 GMT-0400 (EDT), Ultimate_Frisbee, 60
, , space, 7.188000000000002, , , , , , , , , , , , , , Slide11.JPG, 0, 10, 10, 10, , , , , , , , , , , , , , , , , , , , Mon Aug 28 2017 17:29:14 GMT-0400 (EDT), Ultimate_Frisbee, 60
, , space, 0.3850000000000051, , , , , , , , , , , , , , Slide12.JPG, 0, 11, 11, 11, , , , , , , , , , , , , , , , , , , , Mon Aug 28 2017 17:29:14 GMT-0400 (EDT), Ultimate_Frisbee, 60
, , space, 0.5179999999999936, , , , , , , , , , , , , , Slide13.JPG, 0, 12, 12, 12, , , , , , , , , , , , , , , , , , , , Mon Aug 28 2017 17:29:14 GMT-0400 (EDT), Ultimate_Frisbee, 60
, , space, 1.2370000000000019, , , , , , , , , , , , , , Slide14.JPG, 0, 13, 13, 13, , , , , , , , , , , , , , , , , , , , Mon Aug 28 2017 17:29:14 GMT-0400 (EDT), Ultimate_Frisbee, 60
, , , , 0, 2.907999999999994, space, 4.128, left, 1.2849999999999966, , , , , , , , , , , , , , , , , frizFarLeft.jpg, The force is forehand., left, 0, 0, 0, 0, frizFarLeft.jpg, The force is forehand., left, , , , , , Mon Aug 28 2017 17:29:14 GMT-0400 (EDT), Ultimate_Frisbee, 60
, , , , , , , , right, 1.3859999999999957, , , , , , , , , , , , , , , , , frizNearLeft.jpg, The force is away., right, 0, 1, 1, 1, frizNearLeft.jpg, The force is away., right, , , , , , Mon Aug 28 2017 17:29:14 GMT-0400 (EDT), Ultimate_Frisbee, 60
, , , , , , , , right, 1.0859999999999985, , , , , , , , , , , , , , , , , frizFarRight.jpg, The force is backhand., right, 0, 2, 2, 2, frizFarRight.jpg, The force is backhand., right, , , , , , Mon Aug 28 2017 17:29:14 GMT-0400 (EDT), Ultimate_Frisbee, 60
, , , , , , , , right, 1.152000000000001, , , , , , , , , , , , , , , , , frizNearRight.jpg, The force is home., right, 0, 3, 3, 3, frizNearRight.jpg, The force is home., right, , , , , , Mon Aug 28 2017 17:29:14 GMT-0400 (EDT), Ultimate_Frisbee, 60
, , , , , , , , left, 1.0019999999999953, , , , , , , , , , , , , , , , , frizNearLeft.jpg, The force is backhand., left, 0, 4, 4, 4, frizNearLeft.jpg, The force is backhand., left, , , , , , Mon Aug 28 2017 17:29:14 GMT-0400 (EDT), Ultimate_Frisbee, 60
, , , , , , , , right, 0.6350000000000051, , , , , , , , , , , , , , , , , frizNearRight.jpg, The force is home., right, 0, 5, 5, 5, frizNearRight.jpg, The force is home., right, , , , , , Mon Aug 28 2017 17:29:14 GMT-0400 (EDT), Ultimate_Frisbee, 60
, , , , , , , , right, 0.6500000000000057, , , , , , , , , , , , , , , , , frizNearLeft.jpg, The force is away., right, 0, 6, 6, 6, frizNearLeft.jpg, The force is away., right, , , , , , Mon Aug 28 2017 17:29:14 GMT-0400 (EDT), Ultimate_Frisbee, 60
, , , , , , , , left, 0.5840000000000032, , , , , , , , , , , , , , , , , frizFarLeft.jpg, The force is forehand., left, 0, 7, 7, 7, frizFarLeft.jpg, The force is forehand., left, , , , , , Mon Aug 28 2017 17:29:14 GMT-0400 (EDT), Ultimate_Frisbee, 60
, , , , , , , , , , space, 56077.893000000004, left, 0, 1.1699999999982538, , , , , , , , , , , , frizFarRight.jpg, The force is home., right, , , , , frizFarRight.jpg, The force is home., right, 0, 0, 0, 9, , Mon Aug 28 2017 17:29:14 GMT-0400 (EDT), Ultimate_Frisbee, 60
, , , , , , , , , , , , right, 1, 0.8649999999979627, , , , , , , , , , , , frizNearRight.jpg, The force is home., right, , , , , frizNearRight.jpg, The force is home., right, 0, 1, 1, 11, , Mon Aug 28 2017 17:29:14 GMT-0400 (EDT), Ultimate_Frisbee, 60
, , , , , , , , , , , , left, 1, 1.2699999999967986, , , , , , , , , , , , frizNearLeft.jpg, The force is backhand., left, , , , , frizNearLeft.jpg, The force is backhand., left, 0, 2, 2, 6, , Mon Aug 28 2017 17:29:14 GMT-0400 (EDT), Ultimate_Frisbee, 60
, , , , , , , , , , , , right, 1, 0.9759999999951106, , , , , , , , , , , , frizFarLeft.jpg, The force is away., right, , , , , frizFarLeft.jpg, The force is away., right, 0, 3, 3, 12, , Mon Aug 28 2017 17:29:14 GMT-0400 (EDT), Ultimate_Frisbee, 60
, , , , , , , , , , , , left, 1, 1.1370000000024447, , , , , , , , , , , , frizFarLeft.jpg, The force is forehand., left, , , , , frizFarLeft.jpg, The force is forehand., left, 0, 4, 4, 0, , Mon Aug 28 2017 17:29:14 GMT-0400 (EDT), Ultimate_Frisbee, 60
, , , , , , , , , , , , left, 1, 1.103000000002794, , , , , , , , , , , , frizNearRight.jpg, The force is away., left, , , , , frizNearRight.jpg, The force is away., left, 0, 5, 5, 15, , Mon Aug 28 2017 17:29:14 GMT-0400 (EDT), Ultimate_Frisbee, 60
, , , , , , , , , , , , left, 1, 1.0020000000004075, , , , , , , , , , , , frizNearRight.jpg, The force is backhand., left, , , , , frizNearRight.jpg, The force is backhand., left, 0, 6, 6, 7, , Mon Aug 28 2017 17:29:14 GMT-0400 (EDT), Ultimate_Frisbee, 60
, , , , , , , , , , , , right, 1, 0.6009999999951106, , , , , , , , , , , , frizNearRight.jpg, The force is forehand., right, , , , , frizNearRight.jpg, The force is forehand., right, 0, 7, 7, 3, , Mon Aug 28 2017 17:29:14 GMT-0400 (EDT), Ultimate_Frisbee, 60
, , , , , , , , , , , , left, 1, 0.7019999999974971, , , , , , , , , , , , frizFarRight.jpg, The force is forehand., left, , , , , frizFarRight.jpg, The force is forehand., left, 0, 8, 8, 1, , Mon Aug 28 2017 17:29:14 GMT-0400 (EDT), Ultimate_Frisbee, 60
, , , , , , , , , , , , right, 1, 1.0520000000033178, , , , , , , , , , , , frizNearLeft.jpg, The force is away., right, , , , , frizNearLeft.jpg, The force is away., right, 0, 9, 9, 14, , Mon Aug 28 2017 17:29:14 GMT-0400 (EDT), Ultimate_Frisbee, 60
, , , , , , , , , , , , left, 1, 0.7349999999933061, , , , , , , , , , , , frizNearLeft.jpg, The force is home., left, , , , , frizNearLeft.jpg, The force is home., left, 0, 10, 10, 10, , Mon Aug 28 2017 17:29:14 GMT-0400 (EDT), Ultimate_Frisbee, 60
, , , , , , , , , , , , left, 1, 0.6010000000023865, , , , , , , , , , , , frizFarLeft.jpg, The force is home., left, , , , , frizFarLeft.jpg, The force is home., left, 0, 11, 11, 8, , Mon Aug 28 2017 17:29:14 GMT-0400 (EDT), Ultimate_Frisbee, 60
, , , , , , , , , , , , right, 1, 0.6849999999976717, , , , , , , , , , , , frizFarLeft.jpg, The force is backhand., right, , , , , frizFarLeft.jpg, The force is backhand., right, 0, 12, 12, 4, , Mon Aug 28 2017 17:29:14 GMT-0400 (EDT), Ultimate_Frisbee, 60
, , , , , , , , , , , , left, 1, 0.7010000000009313, , , , , , , , , , , , frizFarRight.jpg, The force is away., left, , , , , frizFarRight.jpg, The force is away., left, 0, 13, 13, 13, , Mon Aug 28 2017 17:29:14 GMT-0400 (EDT), Ultimate_Frisbee, 60
, , , , , , , , , , , , left, 0, 0.6349999999947613, , , , , , , , , , , , frizNearLeft.jpg, The force is forehand., right, , , , , frizNearLeft.jpg, The force is forehand., right, 0, 14, 14, 2, , Mon Aug 28 2017 17:29:14 GMT-0400 (EDT), Ultimate_Frisbee, 60
, , , , , , , , , , , , right, 1, 0.8359999999956926, , , , , , , , , , , , frizFarRight.jpg, The force is backhand., right, , , , , frizFarRight.jpg, The force is backhand., right, 0, 15, 15, 5, , Mon Aug 28 2017 17:29:14 GMT-0400 (EDT), Ultimate_Frisbee, 60
, , , , , , , , , , , , right, 1, 0.8689999999987776, , , , , , , , , , , , frizNearLeft.jpg, The force is forehand., right, , , , , frizNearLeft.jpg, The force is forehand., right, 1, 0, 16, 2, , Mon Aug 28 2017 17:29:14 GMT-0400 (EDT), Ultimate_Frisbee, 60
, , , , , , , , , , , , right, 1, 0.7180000000007567, , , , , , , , , , , , frizFarLeft.jpg, The force is backhand., right, , , , , frizFarLeft.jpg, The force is backhand., right, 1, 1, 17, 4, , Mon Aug 28 2017 17:29:14 GMT-0400 (EDT), Ultimate_Frisbee, 60
, , , , , , , , , , , , right, 1, 0.919000000001688, , , , , , , , , , , , frizNearRight.jpg, The force is forehand., right, , , , , frizNearRight.jpg, The force is forehand., right, 1, 2, 18, 3, , Mon Aug 28 2017 17:29:14 GMT-0400 (EDT), Ultimate_Frisbee, 60
, , , , , , , , , , , , left, 1, 0.8349999999991269, , , , , , , , , , , , frizNearRight.jpg, The force is backhand., left, , , , , frizNearRight.jpg, The force is backhand., left, 1, 3, 19, 7, , Mon Aug 28 2017 17:29:14 GMT-0400 (EDT), Ultimate_Frisbee, 60
, , , , , , , , , , , , right, 1, 1.102999999995518, , , , , , , , , , , , frizNearLeft.jpg, The force is away., right, , , , , frizNearLeft.jpg, The force is away., right, 1, 4, 20, 14, , Mon Aug 28 2017 17:29:14 GMT-0400 (EDT), Ultimate_Frisbee, 60
, , , , , , , , , , , , left, 1, 1.0529999999998836, , , , , , , , , , , , frizNearRight.jpg, The force is away., left, , , , , frizNearRight.jpg, The force is away., left, 1, 5, 21, 15, , Mon Aug 28 2017 17:29:14 GMT-0400 (EDT), Ultimate_Frisbee, 60
, , , , , , , , , , , , right, 1, 1.7549999999973807, , , , , , , , , , , , frizNearRight.jpg, The force is home., right, , , , , frizNearRight.jpg, The force is home., right, 1, 6, 22, 11, , Mon Aug 28 2017 17:29:14 GMT-0400 (EDT), Ultimate_Frisbee, 60
, , , , , , , , , , , , left, 1, 2.1379999999990105, , , , , , , , , , , , frizFarRight.jpg, The force is away., left, , , , , frizFarRight.jpg, The force is away., left, 1, 7, 23, 13, , Mon Aug 28 2017 17:29:14 GMT-0400 (EDT), Ultimate_Frisbee, 60
, , , , , , , , , , , , left, 1, 1.0020000000004075, , , , , , , , , , , , frizNearLeft.jpg, The force is backhand., left, , , , , frizNearLeft.jpg, The force is backhand., left, 1, 8, 24, 6, , Mon Aug 28 2017 17:29:14 GMT-0400 (EDT), Ultimate_Frisbee, 60
, , , , , , , , , , , , right, 1, 1.5210000000006403, , , , , , , , , , , , frizFarRight.jpg, The force is backhand., right, , , , , frizFarRight.jpg, The force is backhand., right, 1, 9, 25, 5, , Mon Aug 28 2017 17:29:14 GMT-0400 (EDT), Ultimate_Frisbee, 60
, , , , , , , , , , , , left, 1, 1.536999999996624, , , , , , , , , , , , frizFarRight.jpg, The force is forehand., left, , , , , frizFarRight.jpg, The force is forehand., left, 1, 10, 26, 1, , Mon Aug 28 2017 17:29:14 GMT-0400 (EDT), Ultimate_Frisbee, 60
, , , , , , , , , , , , left, 1, 1.4360000000015134, , , , , , , , , , , , frizNearLeft.jpg, The force is home., left, , , , , frizNearLeft.jpg, The force is home., left, 1, 11, 27, 10, , Mon Aug 28 2017 17:29:14 GMT-0400 (EDT), Ultimate_Frisbee, 60
, , , , , , , , , , , , right, 0, 1.5710000000035507, , , , , , , , , , , , frizFarLeft.jpg, The force is home., left, , , , , frizFarLeft.jpg, The force is home., left, 1, 12, 28, 8, , Mon Aug 28 2017 17:29:14 GMT-0400 (EDT), Ultimate_Frisbee, 60
, , , , , , , , , , , , left, 1, 2.444000000003143, , , , , , , , , , , , frizFarLeft.jpg, The force is forehand., left, , , , , frizFarLeft.jpg, The force is forehand., left, 1, 13, 29, 0, , Mon Aug 28 2017 17:29:14 GMT-0400 (EDT), Ultimate_Frisbee, 60
, , , , , , , , , , , , right, 1, 1.0360000000000582, , , , , , , , , , , , frizFarRight.jpg, The force is home., right, , , , , frizFarRight.jpg, The force is home., right, 1, 14, 30, 9, , Mon Aug 28 2017 17:29:14 GMT-0400 (EDT), Ultimate_Frisbee, 60
, , , , , , , , , , , , right, 1, 1.2030000000013388, , , , , , , , , , , , frizFarLeft.jpg, The force is away., right, , , , , frizFarLeft.jpg, The force is away., right, 1, 15, 31, 12, , Mon Aug 28 2017 17:29:14 GMT-0400 (EDT), Ultimate_Frisbee, 60
, , , , , , , , , , , , left, 1, 2.4769999999989523, , , , , , , , , , , , frizNearRight.jpg, The force is away., left, , , , , frizNearRight.jpg, The force is away., left, 2, 0, 32, 15, , Mon Aug 28 2017 17:29:14 GMT-0400 (EDT), Ultimate_Frisbee, 60
, , , , , , , , , , , , right, 1, 0.8360000000029686, , , , , , , , , , , , frizFarLeft.jpg, The force is backhand., right, , , , , frizFarLeft.jpg, The force is backhand., right, 2, 1, 33, 4, , Mon Aug 28 2017 17:29:14 GMT-0400 (EDT), Ultimate_Frisbee, 60
, , , , , , , , , , , , right, 1, 0.7180000000007567, , , , , , , , , , , , frizNearLeft.jpg, The force is away., right, , , , , frizNearLeft.jpg, The force is away., right, 2, 2, 34, 14, , Mon Aug 28 2017 17:29:14 GMT-0400 (EDT), Ultimate_Frisbee, 60
, , , , , , , , , , , , left, 1, 1.0030000000042492, , , , , , , , , , , , frizNearLeft.jpg, The force is home., left, , , , , frizNearLeft.jpg, The force is home., left, 2, 3, 35, 10, , Mon Aug 28 2017 17:29:14 GMT-0400 (EDT), Ultimate_Frisbee, 60
, , , , , , , , , , , , right, 0, 0.6510000000052969, , , , , , , , , , , , frizNearLeft.jpg, The force is backhand., left, , , , , frizNearLeft.jpg, The force is backhand., left, 2, 4, 36, 6, , Mon Aug 28 2017 17:29:14 GMT-0400 (EDT), Ultimate_Frisbee, 60
, , , , , , , , , , , , left, 1, 1.0529999999998836, , , , , , , , , , , , frizFarLeft.jpg, The force is home., left, , , , , frizFarLeft.jpg, The force is home., left, 2, 5, 37, 8, , Mon Aug 28 2017 17:29:14 GMT-0400 (EDT), Ultimate_Frisbee, 60
, , , , , , , , , , , , right, 1, 0.6350000000020373, , , , , , , , , , , , frizNearRight.jpg, The force is forehand., right, , , , , frizNearRight.jpg, The force is forehand., right, 2, 6, 38, 3, , Mon Aug 28 2017 17:29:14 GMT-0400 (EDT), Ultimate_Frisbee, 60
, , , , , , , , , , , , left, 1, 0.7339999999967404, , , , , , , , , , , , frizFarLeft.jpg, The force is forehand., left, , , , , frizFarLeft.jpg, The force is forehand., left, 2, 7, 39, 0, , Mon Aug 28 2017 17:29:14 GMT-0400 (EDT), Ultimate_Frisbee, 60
, , , , , , , , , , , , right, 1, 0.6180000000022119, , , , , , , , , , , , frizFarRight.jpg, The force is home., right, , , , , frizFarRight.jpg, The force is home., right, 2, 8, 40, 9, , Mon Aug 28 2017 17:29:14 GMT-0400 (EDT), Ultimate_Frisbee, 60
, , , , , , , , , , , , right, 1, 0.7849999999962165, , , , , , , , , , , , frizFarRight.jpg, The force is backhand., right, , , , , frizFarRight.jpg, The force is backhand., right, 2, 9, 41, 5, , Mon Aug 28 2017 17:29:14 GMT-0400 (EDT), Ultimate_Frisbee, 60
, , , , , , , , , , , , right, 0, 0.8689999999987776, , , , , , , , , , , , frizNearRight.jpg, The force is backhand., left, , , , , frizNearRight.jpg, The force is backhand., left, 2, 10, 42, 7, , Mon Aug 28 2017 17:29:14 GMT-0400 (EDT), Ultimate_Frisbee, 60
, , , , , , , , , , , , right, 1, 0.716999999996915, , , , , , , , , , , , frizNearLeft.jpg, The force is forehand., right, , , , , frizNearLeft.jpg, The force is forehand., right, 2, 11, 43, 2, , Mon Aug 28 2017 17:29:14 GMT-0400 (EDT), Ultimate_Frisbee, 60
, , , , , , , , , , , , right, 1, 0.886000000005879, , , , , , , , , , , , frizFarLeft.jpg, The force is away., right, , , , , frizFarLeft.jpg, The force is away., right, 2, 12, 44, 12, , Mon Aug 28 2017 17:29:14 GMT-0400 (EDT), Ultimate_Frisbee, 60
, , , , , , , , , , , , left, 1, 1.6719999999986612, , , , , , , , , , , , frizFarRight.jpg, The force is away., left, , , , , frizFarRight.jpg, The force is away., left, 2, 13, 45, 13, , Mon Aug 28 2017 17:29:14 GMT-0400 (EDT), Ultimate_Frisbee, 60
, , , , , , , , , , , , right, 1, 0.9360000000015134, , , , , , , , , , , , frizNearRight.jpg, The force is home., right, , , , , frizNearRight.jpg, The force is home., right, 2, 14, 46, 11, , Mon Aug 28 2017 17:29:14 GMT-0400 (EDT), Ultimate_Frisbee, 60
, , , , , , , , , , , , left, 1, 0.8189999999958673, , , , , , , , , , , , frizFarRight.jpg, The force is forehand., left, , , , , frizFarRight.jpg, The force is forehand., left, 2, 15, 47, 1, , Mon Aug 28 2017 17:29:14 GMT-0400 (EDT), Ultimate_Frisbee, 60
, , , , , , , , , , , , left, 1, 0.8349999999991269, , , , , , , , , , , , frizFarLeft.jpg, The force is forehand., left, , , , , frizFarLeft.jpg, The force is forehand., left, 3, 0, 48, 0, , Mon Aug 28 2017 17:29:14 GMT-0400 (EDT), Ultimate_Frisbee, 60
, , , , , , , , , , , , right, 1, 0.7690000000002328, , , , , , , , , , , , frizFarRight.jpg, The force is backhand., right, , , , , frizFarRight.jpg, The force is backhand., right, 3, 1, 49, 5, , Mon Aug 28 2017 17:29:14 GMT-0400 (EDT), Ultimate_Frisbee, 60
, , , , , , , , , , , , right, 1, 0.9860000000044238, , , , , , , , , , , , frizNearLeft.jpg, The force is forehand., right, , , , , frizNearLeft.jpg, The force is forehand., right, 3, 2, 50, 2, , Mon Aug 28 2017 17:29:14 GMT-0400 (EDT), Ultimate_Frisbee, 60
, , , , , , , , , , , , left, 1, 0.7680000000036671, , , , , , , , , , , , frizNearRight.jpg, The force is away., left, , , , , frizNearRight.jpg, The force is away., left, 3, 3, 51, 15, , Mon Aug 28 2017 17:29:14 GMT-0400 (EDT), Ultimate_Frisbee, 60
, , , , , , , , , , , , left, 1, 0.7180000000007567, , , , , , , , , , , , frizFarRight.jpg, The force is forehand., left, , , , , frizFarRight.jpg, The force is forehand., left, 3, 4, 52, 1, , Mon Aug 28 2017 17:29:14 GMT-0400 (EDT), Ultimate_Frisbee, 60
, , , , , , , , , , , , right, 1, 0.9019999999945867, , , , , , , , , , , , frizNearRight.jpg, The force is forehand., right, , , , , frizNearRight.jpg, The force is forehand., right, 3, 5, 53, 3, , Mon Aug 28 2017 17:29:14 GMT-0400 (EDT), Ultimate_Frisbee, 60
, , , , , , , , , , , , right, 1, 1.3369999999995343, , , , , , , , , , , , frizNearLeft.jpg, The force is away., right, , , , , frizNearLeft.jpg, The force is away., right, 3, 6, 54, 14, , Mon Aug 28 2017 17:29:14 GMT-0400 (EDT), Ultimate_Frisbee, 60
, , , , , , , , , , , , right, 0, 1.0859999999956926, , , , , , , , , , , , frizFarLeft.jpg, The force is home., left, , , , , frizFarLeft.jpg, The force is home., left, 3, 7, 55, 8, , Mon Aug 28 2017 17:29:14 GMT-0400 (EDT), Ultimate_Frisbee, 60
, , , , , , , , , , , , left, 1, 1.0190000000002328, , , , , , , , , , , , frizFarRight.jpg, The force is away., left, , , , , frizFarRight.jpg, The force is away., left, 3, 8, 56, 13, , Mon Aug 28 2017 17:29:14 GMT-0400 (EDT), Ultimate_Frisbee, 60
, , , , , , , , , , , , right, 1, 1.3869999999951688, , , , , , , , , , , , frizNearRight.jpg, The force is home., right, , , , , frizNearRight.jpg, The force is home., right, 3, 9, 57, 11, , Mon Aug 28 2017 17:29:14 GMT-0400 (EDT), Ultimate_Frisbee, 60
, , , , , , , , , , , , right, 1, 1.2200000000011642, , , , , , , , , , , , frizFarLeft.jpg, The force is away., right, , , , , frizFarLeft.jpg, The force is away., right, 3, 10, 58, 12, , Mon Aug 28 2017 17:29:14 GMT-0400 (EDT), Ultimate_Frisbee, 60
, , , , , , , , , , , , left, 1, 1.2700000000040745, , , , , , , , , , , , frizNearLeft.jpg, The force is backhand., left, , , , , frizNearLeft.jpg, The force is backhand., left, 3, 11, 59, 6, , Mon Aug 28 2017 17:29:14 GMT-0400 (EDT), Ultimate_Frisbee, 60
, , , , , , , , , , , , right, 1, 1.254000000000815, , , , , , , , , , , , frizFarLeft.jpg, The force is backhand., right, , , , , frizFarLeft.jpg, The force is backhand., right, 3, 12, 60, 4, , Mon Aug 28 2017 17:29:14 GMT-0400 (EDT), Ultimate_Frisbee, 60
, , , , , , , , , , , , left, 1, 1.4700000000011642, , , , , , , , , , , , frizNearRight.jpg, The force is backhand., left, , , , , frizNearRight.jpg, The force is backhand., left, 3, 13, 61, 7, , Mon Aug 28 2017 17:29:14 GMT-0400 (EDT), Ultimate_Frisbee, 60
, , , , , , , , , , , , left, 1, 1.9049999999988358, , , , , , , , , , , , frizNearLeft.jpg, The force is home., left, , , , , frizNearLeft.jpg, The force is home., left, 3, 14, 62, 10, , Mon Aug 28 2017 17:29:14 GMT-0400 (EDT), Ultimate_Frisbee, 60
, , , , , , , , , , , , right, 1, 1.3040000000037253, , , , , , , , , , , , frizFarRight.jpg, The force is home., right, , , , , frizFarRight.jpg, The force is home., right, 3, 15, 63, 9, , Mon Aug 28 2017 17:29:14 GMT-0400 (EDT), Ultimate_Frisbee, 60
