Continue.keys, Continue.rt, instructions_response.keys, instructions_response.rt, repeat_response.keys, repeat_response.rt, key_resp_5.keys, key_resp_5.rt, key_resp_2.keys, key_resp_2.rt, key_resp_4.keys, key_resp_4.rt, Trials_response.keys, Trials_response.corr, Trials_response.rt, Block_Continue.keys, Block_Continue.rt, Image, instructions_1_loop.thisRepN, instructions_1_loop.thisTrialN, instructions_1_loop.thisN, instructions_1_loop.thisIndex, instructions_2_repeat.thisRepN, instructions_2_repeat.thisTrialN, instructions_2_repeat.thisN, instructions_2_repeat.thisIndex, stim, prompt, answer, trials_2.thisRepN, trials_2.thisTrialN, trials_2.thisN, trials_2.thisIndex, stim, prompt, answer, trials.thisRepN, trials.thisTrialN, trials.thisN, trials.thisIndex, participant, date, expName, frameRate
space, 2.367000000000001, space, 3.349, , , , , , , , , , , , , , Slide1.JPG, 0, 0, 0, 0, , , , , , , , , , , , , , , , , , , frizstudy9017, Thu Oct 19 2017 20:38:49 GMT-0400 (Eastern Daylight Time), Ultimate_Frisbee, 60
, , space, 8.900000000000002, , , , , , , , , , , , , , Slide2.JPG, 0, 1, 1, 1, , , , , , , , , , , , , , , , , , , frizstudy9017, Thu Oct 19 2017 20:38:49 GMT-0400 (Eastern Daylight Time), Ultimate_Frisbee, 60
, , space, 14.448999999999998, , , , , , , , , , , , , , Slide3.JPG, 0, 2, 2, 2, , , , , , , , , , , , , , , , , , , frizstudy9017, Thu Oct 19 2017 20:38:49 GMT-0400 (Eastern Daylight Time), Ultimate_Frisbee, 60
, , space, 6.917000000000002, , , , , , , , , , , , , , Slide4.JPG, 0, 3, 3, 3, , , , , , , , , , , , , , , , , , , frizstudy9017, Thu Oct 19 2017 20:38:49 GMT-0400 (Eastern Daylight Time), Ultimate_Frisbee, 60
, , space, 8.100000000000001, , , , , , , , , , , , , , Slide5.JPG, 0, 4, 4, 4, , , , , , , , , , , , , , , , , , , frizstudy9017, Thu Oct 19 2017 20:38:49 GMT-0400 (Eastern Daylight Time), Ultimate_Frisbee, 60
, , space, 8.382999999999996, , , , , , , , , , , , , , Slide6.JPG, 0, 5, 5, 5, , , , , , , , , , , , , , , , , , , frizstudy9017, Thu Oct 19 2017 20:38:49 GMT-0400 (Eastern Daylight Time), Ultimate_Frisbee, 60
, , space, 5.801000000000002, , , , , , , , , , , , , , Slide7.JPG, 0, 6, 6, 6, , , , , , , , , , , , , , , , , , , frizstudy9017, Thu Oct 19 2017 20:38:49 GMT-0400 (Eastern Daylight Time), Ultimate_Frisbee, 60
, , space, 2.5349999999999966, , , , , , , , , , , , , , Slide8.JPG, 0, 7, 7, 7, , , , , , , , , , , , , , , , , , , frizstudy9017, Thu Oct 19 2017 20:38:49 GMT-0400 (Eastern Daylight Time), Ultimate_Frisbee, 60
, , space, 3.9669999999999987, , , , , , , , , , , , , , Slide9.JPG, 0, 8, 8, 8, , , , , , , , , , , , , , , , , , , frizstudy9017, Thu Oct 19 2017 20:38:49 GMT-0400 (Eastern Daylight Time), Ultimate_Frisbee, 60
, , space, 3.834000000000003, , , , , , , , , , , , , , Slide10.JPG, 0, 9, 9, 9, , , , , , , , , , , , , , , , , , , frizstudy9017, Thu Oct 19 2017 20:38:49 GMT-0400 (Eastern Daylight Time), Ultimate_Frisbee, 60
, , space, 5.4339999999999975, , , , , , , , , , , , , , Slide11.JPG, 0, 10, 10, 10, , , , , , , , , , , , , , , , , , , frizstudy9017, Thu Oct 19 2017 20:38:49 GMT-0400 (Eastern Daylight Time), Ultimate_Frisbee, 60
, , space, 1.4509999999999934, , , , , , , , , , , , , , Slide12.JPG, 0, 11, 11, 11, , , , , , , , , , , , , , , , , , , frizstudy9017, Thu Oct 19 2017 20:38:49 GMT-0400 (Eastern Daylight Time), Ultimate_Frisbee, 60
, , space, 2.884999999999991, , , , , , , , , , , , , , Slide13.JPG, 0, 12, 12, 12, , , , , , , , , , , , , , , , , , , frizstudy9017, Thu Oct 19 2017 20:38:49 GMT-0400 (Eastern Daylight Time), Ultimate_Frisbee, 60
, , space, 2.015999999999991, , , , , , , , , , , , , , Slide14.JPG, 0, 13, 13, 13, , , , , , , , , , , , , , , , , , , frizstudy9017, Thu Oct 19 2017 20:38:49 GMT-0400 (Eastern Daylight Time), Ultimate_Frisbee, 60
, , , , 0, 3.8330000000000126, space, 6.0660000000000025, left, 2.2979999999999876, , , , , , , , , , , , , , , , , frizFarLeft.jpg, The force is forehand., left, 0, 0, 0, 0, frizFarLeft.jpg, The force is forehand., left, , , , , frizstudy9017, Thu Oct 19 2017 20:38:49 GMT-0400 (Eastern Daylight Time), Ultimate_Frisbee, 60
, , , , , , , , right, 1.9159999999999968, , , , , , , , , , , , , , , , , frizNearLeft.jpg, The force is away., right, 0, 1, 1, 1, frizNearLeft.jpg, The force is away., right, , , , , frizstudy9017, Thu Oct 19 2017 20:38:49 GMT-0400 (Eastern Daylight Time), Ultimate_Frisbee, 60
, , , , , , , , right, 1.5500000000000114, , , , , , , , , , , , , , , , , frizFarRight.jpg, The force is backhand., right, 0, 2, 2, 2, frizFarRight.jpg, The force is backhand., right, , , , , frizstudy9017, Thu Oct 19 2017 20:38:49 GMT-0400 (Eastern Daylight Time), Ultimate_Frisbee, 60
, , , , , , , , right, 2.031000000000006, , , , , , , , , , , , , , , , , frizNearRight.jpg, The force is home., right, 0, 3, 3, 3, frizNearRight.jpg, The force is home., right, , , , , frizstudy9017, Thu Oct 19 2017 20:38:49 GMT-0400 (Eastern Daylight Time), Ultimate_Frisbee, 60
, , , , , , , , left, 2.6990000000000123, , , , , , , , , , , , , , , , , frizNearLeft.jpg, The force is backhand., left, 0, 4, 4, 4, frizNearLeft.jpg, The force is backhand., left, , , , , frizstudy9017, Thu Oct 19 2017 20:38:49 GMT-0400 (Eastern Daylight Time), Ultimate_Frisbee, 60
, , , , , , , , right, 1.115000000000009, , , , , , , , , , , , , , , , , frizNearRight.jpg, The force is home., right, 0, 5, 5, 5, frizNearRight.jpg, The force is home., right, , , , , frizstudy9017, Thu Oct 19 2017 20:38:49 GMT-0400 (Eastern Daylight Time), Ultimate_Frisbee, 60
, , , , , , , , right, 1.3479999999999848, , , , , , , , , , , , , , , , , frizNearLeft.jpg, The force is away., right, 0, 6, 6, 6, frizNearLeft.jpg, The force is away., right, , , , , frizstudy9017, Thu Oct 19 2017 20:38:49 GMT-0400 (Eastern Daylight Time), Ultimate_Frisbee, 60
, , , , , , , , left, 1.382000000000005, , , , , , , , , , , , , , , , , frizFarLeft.jpg, The force is forehand., left, 0, 7, 7, 7, frizFarLeft.jpg, The force is forehand., left, , , , , frizstudy9017, Thu Oct 19 2017 20:38:49 GMT-0400 (Eastern Daylight Time), Ultimate_Frisbee, 60
, , , , , , , , , , space, 9.018, right, 1, 1.467000000000013, , , , , , , , , , , , frizNearLeft.jpg, The force is forehand., right, , , , , frizNearLeft.jpg, The force is forehand., right, 0, 0, 0, 2, frizstudy9017, Thu Oct 19 2017 20:38:49 GMT-0400 (Eastern Daylight Time), Ultimate_Frisbee, 60
, , , , , , , , , , , , left, 1, 1.4180000000000064, , , , , , , , , , , , frizNearLeft.jpg, The force is home., left, , , , , frizNearLeft.jpg, The force is home., left, 0, 1, 1, 10, frizstudy9017, Thu Oct 19 2017 20:38:49 GMT-0400 (Eastern Daylight Time), Ultimate_Frisbee, 60
, , , , , , , , , , , , right, 1, 1.2180000000000177, , , , , , , , , , , , frizFarLeft.jpg, The force is away., right, , , , , frizFarLeft.jpg, The force is away., right, 0, 2, 2, 12, frizstudy9017, Thu Oct 19 2017 20:38:49 GMT-0400 (Eastern Daylight Time), Ultimate_Frisbee, 60
, , , , , , , , , , , , right, 1, 1.8830000000000098, , , , , , , , , , , , frizFarLeft.jpg, The force is backhand., right, , , , , frizFarLeft.jpg, The force is backhand., right, 0, 3, 3, 4, frizstudy9017, Thu Oct 19 2017 20:38:49 GMT-0400 (Eastern Daylight Time), Ultimate_Frisbee, 60
, , , , , , , , , , , , left, 1, 0.9830000000000041, , , , , , , , , , , , frizFarRight.jpg, The force is forehand., left, , , , , frizFarRight.jpg, The force is forehand., left, 0, 4, 4, 1, frizstudy9017, Thu Oct 19 2017 20:38:49 GMT-0400 (Eastern Daylight Time), Ultimate_Frisbee, 60
, , , , , , , , , , , , left, 1, 1.649000000000001, , , , , , , , , , , , frizNearLeft.jpg, The force is backhand., left, , , , , frizNearLeft.jpg, The force is backhand., left, 0, 5, 5, 6, frizstudy9017, Thu Oct 19 2017 20:38:49 GMT-0400 (Eastern Daylight Time), Ultimate_Frisbee, 60
, , , , , , , , , , , , left, 1, 1.1339999999999861, , , , , , , , , , , , frizFarLeft.jpg, The force is forehand., left, , , , , frizFarLeft.jpg, The force is forehand., left, 0, 6, 6, 0, frizstudy9017, Thu Oct 19 2017 20:38:49 GMT-0400 (Eastern Daylight Time), Ultimate_Frisbee, 60
, , , , , , , , , , , , right, 1, 1.3499999999999943, , , , , , , , , , , , frizNearRight.jpg, The force is home., right, , , , , frizNearRight.jpg, The force is home., right, 0, 7, 7, 11, frizstudy9017, Thu Oct 19 2017 20:38:49 GMT-0400 (Eastern Daylight Time), Ultimate_Frisbee, 60
, , , , , , , , , , , , left, 1, 1.5160000000000196, , , , , , , , , , , , frizNearRight.jpg, The force is backhand., left, , , , , frizNearRight.jpg, The force is backhand., left, 0, 8, 8, 7, frizstudy9017, Thu Oct 19 2017 20:38:49 GMT-0400 (Eastern Daylight Time), Ultimate_Frisbee, 60
, , , , , , , , , , , , left, 1, 1.318000000000012, , , , , , , , , , , , frizNearRight.jpg, The force is away., left, , , , , frizNearRight.jpg, The force is away., left, 0, 9, 9, 15, frizstudy9017, Thu Oct 19 2017 20:38:49 GMT-0400 (Eastern Daylight Time), Ultimate_Frisbee, 60
, , , , , , , , , , , , left, 1, 1.0010000000000048, , , , , , , , , , , , frizFarLeft.jpg, The force is home., left, , , , , frizFarLeft.jpg, The force is home., left, 0, 10, 10, 8, frizstudy9017, Thu Oct 19 2017 20:38:49 GMT-0400 (Eastern Daylight Time), Ultimate_Frisbee, 60
, , , , , , , , , , , , right, 1, 1.0510000000000161, , , , , , , , , , , , frizFarRight.jpg, The force is home., right, , , , , frizFarRight.jpg, The force is home., right, 0, 11, 11, 9, frizstudy9017, Thu Oct 19 2017 20:38:49 GMT-0400 (Eastern Daylight Time), Ultimate_Frisbee, 60
, , , , , , , , , , , , left, 0, 1.9850000000000136, , , , , , , , , , , , frizNearRight.jpg, The force is forehand., right, , , , , frizNearRight.jpg, The force is forehand., right, 0, 12, 12, 3, frizstudy9017, Thu Oct 19 2017 20:38:49 GMT-0400 (Eastern Daylight Time), Ultimate_Frisbee, 60
, , , , , , , , , , , , right, 1, 1.3500000000000227, , , , , , , , , , , , frizFarRight.jpg, The force is backhand., right, , , , , frizFarRight.jpg, The force is backhand., right, 0, 13, 13, 5, frizstudy9017, Thu Oct 19 2017 20:38:49 GMT-0400 (Eastern Daylight Time), Ultimate_Frisbee, 60
, , , , , , , , , , , , right, 1, 1.4849999999999852, , , , , , , , , , , , frizNearLeft.jpg, The force is away., right, , , , , frizNearLeft.jpg, The force is away., right, 0, 14, 14, 14, frizstudy9017, Thu Oct 19 2017 20:38:49 GMT-0400 (Eastern Daylight Time), Ultimate_Frisbee, 60
, , , , , , , , , , , , left, 1, 1, , , , , , , , , , , , frizFarRight.jpg, The force is away., left, , , , , frizFarRight.jpg, The force is away., left, 0, 15, 15, 13, frizstudy9017, Thu Oct 19 2017 20:38:49 GMT-0400 (Eastern Daylight Time), Ultimate_Frisbee, 60
, , , , , , , , , , , , right, 1, 1.5840000000000032, , , , , , , , , , , , frizFarRight.jpg, The force is backhand., right, , , , , frizFarRight.jpg, The force is backhand., right, 1, 0, 16, 5, frizstudy9017, Thu Oct 19 2017 20:38:49 GMT-0400 (Eastern Daylight Time), Ultimate_Frisbee, 60
, , , , , , , , , , , , left, 1, 0.9170000000000016, , , , , , , , , , , , frizFarLeft.jpg, The force is forehand., left, , , , , frizFarLeft.jpg, The force is forehand., left, 1, 1, 17, 0, frizstudy9017, Thu Oct 19 2017 20:38:49 GMT-0400 (Eastern Daylight Time), Ultimate_Frisbee, 60
, , , , , , , , , , , , right, 1, 1.6820000000000164, , , , , , , , , , , , frizNearRight.jpg, The force is forehand., right, , , , , frizNearRight.jpg, The force is forehand., right, 1, 2, 18, 3, frizstudy9017, Thu Oct 19 2017 20:38:49 GMT-0400 (Eastern Daylight Time), Ultimate_Frisbee, 60
, , , , , , , , , , , , left, 1, 1.016999999999996, , , , , , , , , , , , frizNearLeft.jpg, The force is home., left, , , , , frizNearLeft.jpg, The force is home., left, 1, 3, 19, 10, frizstudy9017, Thu Oct 19 2017 20:38:49 GMT-0400 (Eastern Daylight Time), Ultimate_Frisbee, 60
, , , , , , , , , , , , left, 1, 1.2830000000000155, , , , , , , , , , , , frizNearRight.jpg, The force is away., left, , , , , frizNearRight.jpg, The force is away., left, 1, 4, 20, 15, frizstudy9017, Thu Oct 19 2017 20:38:49 GMT-0400 (Eastern Daylight Time), Ultimate_Frisbee, 60
, , , , , , , , , , , , left, 1, 1.0339999999999918, , , , , , , , , , , , frizFarRight.jpg, The force is away., left, , , , , frizFarRight.jpg, The force is away., left, 1, 5, 21, 13, frizstudy9017, Thu Oct 19 2017 20:38:49 GMT-0400 (Eastern Daylight Time), Ultimate_Frisbee, 60
, , , , , , , , , , , , right, 1, 1.1679999999999495, , , , , , , , , , , , frizFarLeft.jpg, The force is away., right, , , , , frizFarLeft.jpg, The force is away., right, 1, 6, 22, 12, frizstudy9017, Thu Oct 19 2017 20:38:49 GMT-0400 (Eastern Daylight Time), Ultimate_Frisbee, 60
, , , , , , , , , , , , left, 1, 1.6829999999999927, , , , , , , , , , , , frizNearLeft.jpg, The force is backhand., left, , , , , frizNearLeft.jpg, The force is backhand., left, 1, 7, 23, 6, frizstudy9017, Thu Oct 19 2017 20:38:49 GMT-0400 (Eastern Daylight Time), Ultimate_Frisbee, 60
, , , , , , , , , , , , right, 1, 1.6499999999999773, , , , , , , , , , , , frizNearLeft.jpg, The force is forehand., right, , , , , frizNearLeft.jpg, The force is forehand., right, 1, 8, 24, 2, frizstudy9017, Thu Oct 19 2017 20:38:49 GMT-0400 (Eastern Daylight Time), Ultimate_Frisbee, 60
, , , , , , , , , , , , right, 1, 1.4360000000000355, , , , , , , , , , , , frizFarRight.jpg, The force is home., right, , , , , frizFarRight.jpg, The force is home., right, 1, 9, 25, 9, frizstudy9017, Thu Oct 19 2017 20:38:49 GMT-0400 (Eastern Daylight Time), Ultimate_Frisbee, 60
, , , , , , , , , , , , left, 1, 1.434000000000026, , , , , , , , , , , , frizFarRight.jpg, The force is forehand., left, , , , , frizFarRight.jpg, The force is forehand., left, 1, 10, 26, 1, frizstudy9017, Thu Oct 19 2017 20:38:49 GMT-0400 (Eastern Daylight Time), Ultimate_Frisbee, 60
, , , , , , , , , , , , right, 1, 1.2490000000000236, , , , , , , , , , , , frizNearRight.jpg, The force is home., right, , , , , frizNearRight.jpg, The force is home., right, 1, 11, 27, 11, frizstudy9017, Thu Oct 19 2017 20:38:49 GMT-0400 (Eastern Daylight Time), Ultimate_Frisbee, 60
, , , , , , , , , , , , right, 1, 1.3349999999999795, , , , , , , , , , , , frizFarLeft.jpg, The force is backhand., right, , , , , frizFarLeft.jpg, The force is backhand., right, 1, 12, 28, 4, frizstudy9017, Thu Oct 19 2017 20:38:49 GMT-0400 (Eastern Daylight Time), Ultimate_Frisbee, 60
, , , , , , , , , , , , left, 1, 0.785000000000025, , , , , , , , , , , , frizFarLeft.jpg, The force is home., left, , , , , frizFarLeft.jpg, The force is home., left, 1, 13, 29, 8, frizstudy9017, Thu Oct 19 2017 20:38:49 GMT-0400 (Eastern Daylight Time), Ultimate_Frisbee, 60
, , , , , , , , , , , , right, 1, 1.4180000000000064, , , , , , , , , , , , frizNearLeft.jpg, The force is away., right, , , , , frizNearLeft.jpg, The force is away., right, 1, 14, 30, 14, frizstudy9017, Thu Oct 19 2017 20:38:49 GMT-0400 (Eastern Daylight Time), Ultimate_Frisbee, 60
, , , , , , , , , , , , left, 1, 0.9159999999999968, , , , , , , , , , , , frizNearRight.jpg, The force is backhand., left, , , , , frizNearRight.jpg, The force is backhand., left, 1, 15, 31, 7, frizstudy9017, Thu Oct 19 2017 20:38:49 GMT-0400 (Eastern Daylight Time), Ultimate_Frisbee, 60
, , , , , , , , , , , , left, 1, 1.4159999999999968, , , , , , , , , , , , frizNearRight.jpg, The force is away., left, , , , , frizNearRight.jpg, The force is away., left, 2, 0, 32, 15, frizstudy9017, Thu Oct 19 2017 20:38:49 GMT-0400 (Eastern Daylight Time), Ultimate_Frisbee, 60
, , , , , , , , , , , , left, 1, 0.9010000000000105, , , , , , , , , , , , frizFarRight.jpg, The force is away., left, , , , , frizFarRight.jpg, The force is away., left, 2, 1, 33, 13, frizstudy9017, Thu Oct 19 2017 20:38:49 GMT-0400 (Eastern Daylight Time), Ultimate_Frisbee, 60
, , , , , , , , , , , , left, 1, 1.16700000000003, , , , , , , , , , , , frizFarLeft.jpg, The force is forehand., left, , , , , frizFarLeft.jpg, The force is forehand., left, 2, 2, 34, 0, frizstudy9017, Thu Oct 19 2017 20:38:49 GMT-0400 (Eastern Daylight Time), Ultimate_Frisbee, 60
, , , , , , , , , , , , right, 1, 1.0330000000000155, , , , , , , , , , , , frizFarRight.jpg, The force is home., right, , , , , frizFarRight.jpg, The force is home., right, 2, 3, 35, 9, frizstudy9017, Thu Oct 19 2017 20:38:49 GMT-0400 (Eastern Daylight Time), Ultimate_Frisbee, 60
, , , , , , , , , , , , right, 1, 1.481999999999971, , , , , , , , , , , , frizNearLeft.jpg, The force is forehand., right, , , , , frizNearLeft.jpg, The force is forehand., right, 2, 4, 36, 2, frizstudy9017, Thu Oct 19 2017 20:38:49 GMT-0400 (Eastern Daylight Time), Ultimate_Frisbee, 60
, , , , , , , , , , , , right, 1, 1.2169999999999845, , , , , , , , , , , , frizFarRight.jpg, The force is backhand., right, , , , , frizFarRight.jpg, The force is backhand., right, 2, 5, 37, 5, frizstudy9017, Thu Oct 19 2017 20:38:49 GMT-0400 (Eastern Daylight Time), Ultimate_Frisbee, 60
, , , , , , , , , , , , left, 1, 0.8170000000000073, , , , , , , , , , , , frizFarRight.jpg, The force is forehand., left, , , , , frizFarRight.jpg, The force is forehand., left, 2, 6, 38, 1, frizstudy9017, Thu Oct 19 2017 20:38:49 GMT-0400 (Eastern Daylight Time), Ultimate_Frisbee, 60
, , , , , , , , , , , , right, 1, 1.350999999999999, , , , , , , , , , , , frizNearRight.jpg, The force is forehand., right, , , , , frizNearRight.jpg, The force is forehand., right, 2, 7, 39, 3, frizstudy9017, Thu Oct 19 2017 20:38:49 GMT-0400 (Eastern Daylight Time), Ultimate_Frisbee, 60
, , , , , , , , , , , , right, 1, 1.41700000000003, , , , , , , , , , , , frizFarLeft.jpg, The force is backhand., right, , , , , frizFarLeft.jpg, The force is backhand., right, 2, 8, 40, 4, frizstudy9017, Thu Oct 19 2017 20:38:49 GMT-0400 (Eastern Daylight Time), Ultimate_Frisbee, 60
, , , , , , , , , , , , left, 1, 1.268000000000029, , , , , , , , , , , , frizNearRight.jpg, The force is backhand., left, , , , , frizNearRight.jpg, The force is backhand., left, 2, 9, 41, 7, frizstudy9017, Thu Oct 19 2017 20:38:49 GMT-0400 (Eastern Daylight Time), Ultimate_Frisbee, 60
, , , , , , , , , , , , right, 1, 1.91700000000003, , , , , , , , , , , , frizNearLeft.jpg, The force is away., right, , , , , frizNearLeft.jpg, The force is away., right, 2, 10, 42, 14, frizstudy9017, Thu Oct 19 2017 20:38:49 GMT-0400 (Eastern Daylight Time), Ultimate_Frisbee, 60
, , , , , , , , , , , , left, 1, 0.9499999999999886, , , , , , , , , , , , frizNearLeft.jpg, The force is home., left, , , , , frizNearLeft.jpg, The force is home., left, 2, 11, 43, 10, frizstudy9017, Thu Oct 19 2017 20:38:49 GMT-0400 (Eastern Daylight Time), Ultimate_Frisbee, 60
, , , , , , , , , , , , left, 1, 0.8509999999999991, , , , , , , , , , , , frizFarLeft.jpg, The force is home., left, , , , , frizFarLeft.jpg, The force is home., left, 2, 12, 44, 8, frizstudy9017, Thu Oct 19 2017 20:38:49 GMT-0400 (Eastern Daylight Time), Ultimate_Frisbee, 60
, , , , , , , , , , , , right, 1, 1.1519999999999868, , , , , , , , , , , , frizNearRight.jpg, The force is home., right, , , , , frizNearRight.jpg, The force is home., right, 2, 13, 45, 11, frizstudy9017, Thu Oct 19 2017 20:38:49 GMT-0400 (Eastern Daylight Time), Ultimate_Frisbee, 60
, , , , , , , , , , , , right, 1, 1.5830000000000268, , , , , , , , , , , , frizFarLeft.jpg, The force is away., right, , , , , frizFarLeft.jpg, The force is away., right, 2, 14, 46, 12, frizstudy9017, Thu Oct 19 2017 20:38:49 GMT-0400 (Eastern Daylight Time), Ultimate_Frisbee, 60
, , , , , , , , , , , , left, 1, 1.5849999999999795, , , , , , , , , , , , frizNearLeft.jpg, The force is backhand., left, , , , , frizNearLeft.jpg, The force is backhand., left, 2, 15, 47, 6, frizstudy9017, Thu Oct 19 2017 20:38:49 GMT-0400 (Eastern Daylight Time), Ultimate_Frisbee, 60
, , , , , , , , , , , , left, 1, 1.316000000000031, , , , , , , , , , , , frizFarRight.jpg, The force is away., left, , , , , frizFarRight.jpg, The force is away., left, 3, 0, 48, 13, frizstudy9017, Thu Oct 19 2017 20:38:49 GMT-0400 (Eastern Daylight Time), Ultimate_Frisbee, 60
, , , , , , , , , , , , left, 1, 1.3840000000000146, , , , , , , , , , , , frizFarLeft.jpg, The force is forehand., left, , , , , frizFarLeft.jpg, The force is forehand., left, 3, 1, 49, 0, frizstudy9017, Thu Oct 19 2017 20:38:49 GMT-0400 (Eastern Daylight Time), Ultimate_Frisbee, 60
, , , , , , , , , , , , right, 1, 1.25, , , , , , , , , , , , frizFarRight.jpg, The force is backhand., right, , , , , frizFarRight.jpg, The force is backhand., right, 3, 2, 50, 5, frizstudy9017, Thu Oct 19 2017 20:38:49 GMT-0400 (Eastern Daylight Time), Ultimate_Frisbee, 60
, , , , , , , , , , , , right, 1, 3.083000000000027, , , , , , , , , , , , frizNearLeft.jpg, The force is away., right, , , , , frizNearLeft.jpg, The force is away., right, 3, 3, 51, 14, frizstudy9017, Thu Oct 19 2017 20:38:49 GMT-0400 (Eastern Daylight Time), Ultimate_Frisbee, 60
, , , , , , , , , , , , right, 1, 1.217999999999961, , , , , , , , , , , , frizFarLeft.jpg, The force is away., right, , , , , frizFarLeft.jpg, The force is away., right, 3, 4, 52, 12, frizstudy9017, Thu Oct 19 2017 20:38:49 GMT-0400 (Eastern Daylight Time), Ultimate_Frisbee, 60
, , , , , , , , , , , , right, 1, 1.8829999999999814, , , , , , , , , , , , frizFarLeft.jpg, The force is backhand., right, , , , , frizFarLeft.jpg, The force is backhand., right, 3, 5, 53, 4, frizstudy9017, Thu Oct 19 2017 20:38:49 GMT-0400 (Eastern Daylight Time), Ultimate_Frisbee, 60
, , , , , , , , , , , , left, 1, 1.4510000000000218, , , , , , , , , , , , frizNearLeft.jpg, The force is backhand., left, , , , , frizNearLeft.jpg, The force is backhand., left, 3, 6, 54, 6, frizstudy9017, Thu Oct 19 2017 20:38:49 GMT-0400 (Eastern Daylight Time), Ultimate_Frisbee, 60
, , , , , , , , , , , , left, 1, 1.1000000000000227, , , , , , , , , , , , frizFarRight.jpg, The force is forehand., left, , , , , frizFarRight.jpg, The force is forehand., left, 3, 7, 55, 1, frizstudy9017, Thu Oct 19 2017 20:38:49 GMT-0400 (Eastern Daylight Time), Ultimate_Frisbee, 60
, , , , , , , , , , , , right, 1, 1.5160000000000196, , , , , , , , , , , , frizNearRight.jpg, The force is forehand., right, , , , , frizNearRight.jpg, The force is forehand., right, 3, 8, 56, 3, frizstudy9017, Thu Oct 19 2017 20:38:49 GMT-0400 (Eastern Daylight Time), Ultimate_Frisbee, 60
, , , , , , , , , , , , left, 1, 0.5849999999999795, , , , , , , , , , , , frizNearRight.jpg, The force is backhand., left, , , , , frizNearRight.jpg, The force is backhand., left, 3, 9, 57, 7, frizstudy9017, Thu Oct 19 2017 20:38:49 GMT-0400 (Eastern Daylight Time), Ultimate_Frisbee, 60
, , , , , , , , , , , , right, 1, 1.1479999999999677, , , , , , , , , , , , frizNearLeft.jpg, The force is forehand., right, , , , , frizNearLeft.jpg, The force is forehand., right, 3, 10, 58, 2, frizstudy9017, Thu Oct 19 2017 20:38:49 GMT-0400 (Eastern Daylight Time), Ultimate_Frisbee, 60
, , , , , , , , , , , , left, 1, 1.117999999999995, , , , , , , , , , , , frizNearRight.jpg, The force is away., left, , , , , frizNearRight.jpg, The force is away., left, 3, 11, 59, 15, frizstudy9017, Thu Oct 19 2017 20:38:49 GMT-0400 (Eastern Daylight Time), Ultimate_Frisbee, 60
, , , , , , , , , , , , left, 1, 1.0509999999999877, , , , , , , , , , , , frizFarLeft.jpg, The force is home., left, , , , , frizFarLeft.jpg, The force is home., left, 3, 12, 60, 8, frizstudy9017, Thu Oct 19 2017 20:38:49 GMT-0400 (Eastern Daylight Time), Ultimate_Frisbee, 60
, , , , , , , , , , , , left, 1, 0.9669999999999845, , , , , , , , , , , , frizNearLeft.jpg, The force is home., left, , , , , frizNearLeft.jpg, The force is home., left, 3, 13, 61, 10, frizstudy9017, Thu Oct 19 2017 20:38:49 GMT-0400 (Eastern Daylight Time), Ultimate_Frisbee, 60
, , , , , , , , , , , , right, 1, 1.0159999999999627, , , , , , , , , , , , frizNearRight.jpg, The force is home., right, , , , , frizNearRight.jpg, The force is home., right, 3, 14, 62, 11, frizstudy9017, Thu Oct 19 2017 20:38:49 GMT-0400 (Eastern Daylight Time), Ultimate_Frisbee, 60
, , , , , , , , , , , , right, 1, 1.3320000000000505, , , , , , , , , , , , frizFarRight.jpg, The force is home., right, , , , , frizFarRight.jpg, The force is home., right, 3, 15, 63, 9, frizstudy9017, Thu Oct 19 2017 20:38:49 GMT-0400 (Eastern Daylight Time), Ultimate_Frisbee, 60
